acc_x, acc_y, angular_z, stamp, 
-0.015353739261627197, 0.012410461902618408, 5.019389001117675e-10, 1791573401456564771, 
-0.002753734588623047, -0.00010967254638671875, 1.995081796012994e-06, 1791573401486446847, 
-0.008228123188018799, -0.00016760826110839844, 1.9876472076703225e-06, 1791573401576492869, 
0.0042969584465026855, 0.03210932016372681, 3.3572315329845804e-10, 1791573401606470337, 
0.0016498565673828125, -0.021132588386535645, -1.2493101633523767e-12, 1791573401726463100, 
0.0001474618911743164, -0.013952910900115967, 3.142095809041356e-12, 1791573401756394960, 
0.0002472400665283203, 0.02370506525039673, 6.7651686459058905e-12, 1791573401786384156, 
-0.008557677268981934, 0.007438778877258301, 1.8221809658991953e-11, 1791573401816419357, 
0.013203203678131104, -0.0034354329109191895, 4.2094377360651516e-11, 1791573401846450996, 
-0.01359248161315918, -0.012166738510131836, 3.7293716275330396e-11, 1791573401877243479, 
-0.02061140537261963, 0.009450018405914307, 1.3378625886847807e-11, 1791573401909347693, 
0.020906686782836914, 0.007620334625244141, 1.5565993526858416e-12, 1791573401936503672, 
0.017292320728302002, -0.010453641414642334, 2.2462339962877342e-11, 1791573401966430795, 
0.0011067986488342285, -0.004963517189025879, 1.6076246003446014e-11, 1791573401996396569, 
-0.0007552504539489746, -0.019195199012756348, -1.970095377474691e-06, 1791573402026651334, 
-0.0008093714714050293, 0.0042247772216796875, -2.9546875872127187e-11, 1791573402056655303, 
-0.0026496052742004395, -0.0011513233184814453, -3.583311551633431e-11, 1791573402086456800, 
0.011606395244598389, -0.0028380155563354492, -4.168865950597513e-11, 1791573402117139660, 
-0.013620138168334961, -0.03501713275909424, -5.612171444197834e-11, 1791573402149664662, 
-0.011647999286651611, 0.0032099485397338867, -1.1567533892895415e-10, 1791573402176881177, 
0.03338712453842163, 0.001751542091369629, -2.1223975821085833e-10, 1791573402206632166, 
0.008146047592163086, -0.01244884729385376, -2.485494615545428e-10, 1791573402236408834, 
0.01537388563156128, -0.010087907314300537, 1.9847670760130744e-06, 1791573402266436160, 
-0.006236135959625244, 0.013439536094665527, -2.34554464117396e-10, 1791573402296419937, 
0.002754032611846924, 0.013597309589385986, -2.8002372387039495e-10, 1791573402326419701, 
-0.025986194610595703, -0.00964123010635376, -1.9900540459149127e-10, 1791573402357088036, 
0.006140768527984619, 0.004579722881317139, -1.57866600389425e-10, 1791573402389411390, 
-0.003008723258972168, -0.0007829070091247559, 2.138624657429242e-06, 1791573402417280727, 
0.009524941444396973, -0.00257265567779541, -7.71760871993394e-11, 1791573402446483076, 
0.016617536544799805, -0.009857714176177979, -7.222251904240191e-12, 1791573402476393162, 
0.011075437068939209, -0.0026847124099731445, 8.489429428241837e-11, 1791573402506413729, 
-0.014352560043334961, -0.008219301700592041, 1.400012693424761e-10, 1791573402536494565, 
-0.012608706951141357, -0.019017457962036133, 1.977978584441677e-06, 1791573402566630442, 
0.008839249610900879, -0.0047110915184021, 1.5335999315907675e-10, 1791573402597398048, 
0.019536375999450684, 0.004179239273071289, 1.439105022666653e-10, 1791573402628130720, 
0.010483264923095703, 0.004066824913024902, 1.4302587344341132e-10, 1791573402656633781, 
-0.005776643753051758, 0.02186143398284912, 1.2887513231809689e-10, 1791573402686394589, 
0.019392549991607666, 0.005475103855133057, 1.9808200261007535e-06, 1791573402716486670, 
-0.01854848861694336, 0.003201007843017578, 1.7114989980316935e-11, 1791573402746385740, 
0.002871990203857422, -0.024066448211669922, -7.806963632472555e-11, 1791573402776402001, 
0.009901702404022217, -0.004524528980255127, -1.2543310046783e-10, 1791573402806359204, 
-0.013404011726379395, 0.007942557334899902, -1.4411410731102211e-10, 1791573402837259459, 
0.0046877264976501465, 0.009673058986663818, -1.3498407207125133e-10, 1791573402869932950, 
-0.018557250499725342, -0.00838613510131836, -1.3427902884832522e-10, 1791573402896404711, 
-0.005789697170257568, -0.011997342109680176, -1.194860725010131e-10, 1791573402926353998, 
0.005128324031829834, 0.006027579307556152, -8.129499135438923e-11, 1791573402956359372, 
-0.00927269458770752, 0.02212083339691162, -7.593610916004846e-11, 1791573402986356854, 
-0.014636874198913574, -0.010326921939849854, -6.351214554824454e-11, 1791573403016420162, 
-0.0020807981491088867, 0.004023194313049316, -5.827151207376769e-11, 1791573403046695282, 
-0.009286940097808838, -0.006850063800811768, -1.967102443849873e-06, 1791573403076996726, 
0.021340250968933105, 0.00026351213455200195, -1.8370406888250054e-06, 1791573403109443508, 
0.003303825855255127, -0.012609302997589111, -9.688818461458211e-11, 1791573403136387313, 
-0.0021230578422546387, -0.002004384994506836, -1.0473172905587067e-10, 1791573403166350777, 
-0.005686819553375244, 0.012341320514678955, -1.169822639728619e-10, 1791573403196349368, 
-0.0019530057907104492, 0.012126803398132324, -5.2898967102428435e-11, 1791573403226322255, 
-0.00545114278793335, 0.026320278644561768, 1.1624584803214427e-11, 1791573403256341705, 
0.0018391609191894531, -0.0243414044380188, -1.9840222240124282e-06, 1791573403286383452, 
-0.024855613708496094, 0.008109986782073975, 1.0464004747720105e-10, 1791573403317248183, 
-0.02455359697341919, 0.0009308457374572754, 2.078585582365912e-10, 1791573403348077200, 
-0.013496637344360352, -0.001031637191772461, 3.4507157608321283e-10, 1791573403375361563, 
0.006508052349090576, 0.016897380352020264, -1.98992227327698e-06, 1791573403405308567, 
-0.02569758892059326, -0.008446872234344482, 4.940056886295459e-10, 1791573403435304779, 
-0.002093791961669922, -0.019129157066345215, 5.327549352455932e-10, 1791573403466335580, 
0.0015674829483032227, -0.015459835529327393, -1.9819032706464494e-06, 1791573403496401998, 
0.014142453670501709, 0.004308342933654785, 4.9538375122565e-10, 1791573403525386088, 
0.008665919303894043, 0.0006698966026306152, -1.8490439669703512e-06, 1791573403557614541, 
-0.005647182464599609, -0.011767864227294922, 3.668785682684167e-10, 1791573403588994517, 
0.016738593578338623, 0.012882113456726074, 1.8892803732082793e-10, 1791573403616317600, 
0.0022866129875183105, 0.02530229091644287, -0.0012988660419851875, 1791573403646283669, 
0.1549326777458191, 0.06118732690811157, 0.0015148580185962808, 1791573403676305165, 
0.42417460680007935, 0.8097244501113892, 0.14238383883707675, 1791573403706316216, 
1.7783585786819458, -0.021918833255767822, 0.34212402667904435, 1791573403736297767, 
0.030092298984527588, -0.05458831787109375, 0.3752929704786499, 1791573403766324400, 
0.37114471197128296, 0.3576870560646057, 0.47049985682995155, 1791573403797031330, 
-0.03516542911529541, 0.16619688272476196, 0.5099544794041999, 1791573403829016412, 
0.07767170667648315, -0.11781132221221924, 0.6316239614203819, 1791573403856354178, 
-0.5131187438964844, -0.18883663415908813, 0.5824334030857377, 1791573403886286931, 
0.18409520387649536, 0.33261197805404663, 0.5362429258711621, 1791573403916324956, 
-0.33543479442596436, 0.06408631801605225, 0.4879549115926884, 1791573403946287780, 
-0.1041024923324585, -0.27956998348236084, 0.47639034805254393, 1791573403976293011, 
-0.11003100872039795, 0.22587603330612183, 0.48873846412422717, 1791573404006311095, 
0.09977889060974121, 0.14148366451263428, 0.4921869873912991, 1791573404037041278, 
0.15055763721466064, 0.1889791488647461, 0.4623182129526791, 1791573404069460361, 
-0.09861689805984497, -0.21063297986984253, 0.5764007024507105, 1791573404096367551, 
0.7594982981681824, 0.06007373332977295, 0.4855675885592637, 1791573404126301240, 
-0.36556607484817505, 0.12201458215713501, 0.4794206000903944, 1791573404156295149, 
0.5506445169448853, 0.18451440334320068, 0.4485209669403499, 1791573404186271765, 
-0.5478714108467102, 0.09189087152481079, 0.4844480041842514, 1791573404216291817, 
0.21661365032196045, -0.19389963150024414, 0.5027893365244755, 1791573404246278380, 
-0.1923651099205017, 0.1767892837524414, 0.5013645588739343, 1791573404277053123, 
0.13763678073883057, 0.075286865234375, 0.4724250114303212, 1791573404309040897, 
0.07624697685241699, 0.031601905822753906, 0.5540512874782987, 1791573404336389855, 
-0.10207504034042358, 0.12466031312942505, 0.5215218002868235, 1791573404366336119, 
0.2576404809951782, -0.016995608806610107, 0.5054773146139808, 1791573404396349580, 
-0.156721293926239, 0.1290353536605835, 0.5197113638384271, 1791573404425383490, 
0.13519936800003052, 0.11053085327148438, 0.4939384213588969, 1791573404456345249, 
-0.14139842987060547, 0.1354844570159912, 0.513326360898811, 1791573404486271060, 
0.06920099258422852, -0.0449863076210022, 0.49707530747859674, 1791573404517550422, 
-0.06377071142196655, 0.10852444171905518, 0.47944113787512443, 1791573404549311671, 
-0.11730432510375977, -0.10340666770935059, 0.5491150760876011, 1791573404576361346, 
0.09373563528060913, 0.12116467952728271, 0.47701043100147683, 1791573404606266729, 
-0.3986191153526306, 0.04278534650802612, 0.4728481474621601, 1791573404636259800, 
0.17957860231399536, 0.00872337818145752, 0.4789093647910842, 1791573404666241737, 
-0.43227583169937134, 0.19492775201797485, 0.5178409507446355, 1791573404696280234, 
0.40736931562423706, -0.034101009368896484, 0.5361188028422419, 1791573404726305323, 
-0.10239571332931519, 0.20696747303009033, 0.5000921651194705, 1791573404757093378, 
0.39003413915634155, -0.09867501258850098, 0.4894094722517258, 1791573404789160363, 
-0.01469641923904419, -0.06777387857437134, 0.5661107772707161, 1791573404816294832, 
-0.01749056577682495, 0.1704500913619995, 0.4975203522955597, 1791573404846236723, 
-0.26147955656051636, -0.03571563959121704, 0.4763737726140352, 1791573404876244347, 
-0.06521385908126831, 0.12852686643600464, 0.4828771826994924, 1791573404906230698, 
-0.13584375381469727, -0.03528904914855957, 0.502779975853328, 1791573404936268518, 
-0.0332183837890625, 0.2811618447303772, 0.5281432494867633, 1791573404966308295, 
-0.007444620132446289, 0.06015557050704956, 0.5185778092647833, 1791573404997360590, 
-0.07252126932144165, -0.10524040460586548, 0.4889048074810411, 1791573405029575424, 
-0.1751115322113037, -0.047146737575531006, 0.5966348846832059, 1791573405056261744, 
-0.0064768195152282715, 0.14394301176071167, 0.49481466974645993, 1791573405086236022, 
-0.2762960195541382, 0.0741502046585083, 0.4810041701784111, 1791573405116247291, 
0.19240802526474, -0.06271582841873169, 0.4794561172608349, 1791573405146254881, 
-0.1811034083366394, 0.1862931251525879, 0.5156193543048795, 1791573405176269329, 
-0.0278509259223938, 0.08459025621414185, 0.5492885959052501, 1791573405206285826, 
0.3898494243621826, 0.13046860694885254, 0.5098868349282322, 1791573405237391499, 
-0.16629493236541748, -0.12008404731750488, 0.4790393923917963, 1791573405269385464, 
0.4509931206703186, -0.039888858795166016, 0.547031559561733, 1791573405296318045, 
-0.10624951124191284, 0.10845392942428589, 0.48342825783889215, 1791573405326275157, 
0.05439549684524536, 0.013919055461883545, 0.47333261682432226, 1791573405356243007, 
-0.20461970567703247, 0.2969135642051697, 0.49307107340903644, 1791573405386254610, 
-0.16896837949752808, -0.18000274896621704, 0.5011017005828863, 1791573405416268206, 
-0.3766597509384155, 0.21629101037979126, 0.5076366767001105, 1791573405446259510, 
0.20477724075317383, 0.014915227890014648, 0.47077963534241357, 1791573405478903622, 
-0.12742042541503906, 0.08266925811767578, 0.49283089535883173, 1791573405509143900, 
-0.14035630226135254, -0.03501105308532715, 0.5262861912894394, 1791573405536257105, 
0.26450860500335693, 0.20264428853988647, 0.4867494098471192, 1791573405566244100, 
-0.49646270275115967, 0.16344213485717773, 0.5308436986224098, 1791573405596264847, 
0.3822339177131653, -0.05912536382675171, 0.5120197276697929, 1791573405626406501, 
-0.34953320026397705, 0.16295182704925537, 0.508588630461404, 1791573405656247333, 
0.33559179306030273, -0.050249695777893066, 0.4998954325933592, 1791573405686269246, 
-0.0813150405883789, 0.06399744749069214, 0.4987111802412378, 1791573405717150805, 
0.186581552028656, -0.049568772315979004, 0.46900551448464084, 1791573405749188743, 
-0.2510266900062561, 0.08320599794387817, 0.5292306081550849, 1791573405776470413, 
0.1897120475769043, -0.0003921985626220703, 0.5066108559758707, 1791573405806291096, 
-0.3892998695373535, 0.17656558752059937, 0.5194122202808995, 1791573405836306859, 
0.16613668203353882, 0.013693690299987793, 0.5358160867054174, 1791573405866283491, 
-0.05122172832489014, 0.044025540351867676, 0.5264768804712368, 1791573405896222781, 
0.28959381580352783, -0.07357972860336304, 0.5145726693938973, 1791573405926253915, 
0.1615006923675537, 0.00043380260467529297, 0.49106097913883157, 1791573405956103514, 
-0.17085802555084229, 0.2691764831542969, 0.42024651995003454, 1791573405989694819, 
-0.1210622787475586, 0.04630941152572632, 0.5276416018506318, 1791573406017183361, 
-0.16517621278762817, 0.07540631294250488, 0.5283741076962059, 1791573406046254132, 
-0.36140841245651245, 0.026377081871032715, 0.5084809114375016, 1791573406076274128, 
0.31655365228652954, 0.09268027544021606, 0.5019105327114968, 1791573406106455247, 
-0.08172166347503662, -0.045254409313201904, 0.4960561267804098, 1791573406136241671, 
0.04878997802734375, 0.20800137519836426, 0.4819698987736289, 1791573406166219277, 
0.11588811874389648, 0.16950613260269165, 0.45672596713504604, 1791573406197541394, 
-0.09205937385559082, 0.14015936851501465, 0.46321354875436815, 1791573406229475511, 
0.04229670763015747, 0.016627371311187744, 0.5723728671402062, 1791573406256318390, 
-0.3069331645965576, 0.04220283031463623, 0.5212708463251077, 1791573406286234162, 
-0.033210694789886475, 0.17673343420028687, 0.4494234388185239, 1791573406309552803, 
0.038974881172180176, -0.19576776027679443, 0.5459418785606055, 1791573406346444773, 
0.1602867841720581, 0.06986141204833984, 0.49884200450998567, 1791573406376219197, 
-0.12012892961502075, 0.10684043169021606, 0.46339998931887294, 1791573406406253378, 
-0.13702744245529175, 0.28431612253189087, 0.443200249285724, 1791573406437855018, 
-0.030056238174438477, 0.04879099130630493, 0.4675220716429115, 1791573406469187820, 
-0.20284616947174072, 0.021232128143310547, 0.579670566939346, 1791573406496294841, 
0.019775688648223877, -0.03551524877548218, 0.5374918841947004, 1791573406526236224, 
0.05068373680114746, -0.06775891780853271, 0.5304007000912714, 1791573406556215128, 
0.1242837905883789, 0.0007655024528503418, 0.4949686004802456, 1791573406586231378, 
-0.16898733377456665, 0.07038235664367676, 0.46777675581864914, 1791573406616230713, 
-0.04302966594696045, 0.30571407079696655, 0.4717878418265723, 1791573406646257447, 
-0.1937265396118164, -0.2065904140472412, 0.47289342790518585, 1791573406677493556, 
-0.33034563064575195, 0.32848507165908813, 0.4937616020682251, 1791573406709216119, 
0.5975134372711182, -0.00963360071182251, 0.5764750959597613, 1791573406746199381, 
-0.3695484399795532, 0.14172577857971191, 0.5205339621002927, 1791573406776191182, 
0.4882540702819824, -0.15316540002822876, 0.49586284118988794, 1791573406806238065, 
-0.29426074028015137, 0.29853731393814087, 0.47586781125988237, 1791573406837195423, 
0.15149438381195068, -0.14888149499893188, 0.44710810740695245, 1791573406869232122, 
-0.20671987533569336, 0.12515568733215332, 0.5746754533179524, 1791573406896301630, 
-0.2508949041366577, -0.06552112102508545, 0.5426816240733513, 1791573406926202226, 
0.2821996808052063, 0.12473827600479126, 0.5205275793006502, 1791573406956185286, 
-0.0819176435470581, -0.09261924028396606, 0.4964923163316953, 1791573406986195603, 
0.18127483129501343, 0.12830966711044312, 0.4896538973810835, 1791573407016212447, 
-0.46077895164489746, 0.09497958421707153, 0.5165404824540551, 1791573407046256239, 
0.29164808988571167, 0.024491965770721436, 0.4753512668185811, 1791573407077672680, 
-0.4444488286972046, -0.0541839599609375, 0.48183696289019395, 1791573407109271092, 
0.28869742155075073, 0.04995143413543701, 0.566308441234815, 1791573407136417877, 
-0.029764890670776367, 0.10057568550109863, 0.5100278123308482, 1791573407166354686, 
0.17390626668930054, 0.1554984450340271, 0.5008450467823816, 1791573407196166662, 
-0.5045976042747498, 0.0030866265296936035, 0.5014684423106571, 1791573407226214098, 
-0.0455208420753479, -0.028321266174316406, 0.5043421212551688, 1791573407256215666, 
-0.11062890291213989, -0.01634901762008667, 0.5199966648521884, 1791573407286219805, 
0.2513032555580139, -0.08582490682601929, 0.49312063349892254, 1791573407317512819, 
0.29668736457824707, 0.3008408546447754, 0.46766787990171066, 1791573407349514213, 
-0.2810654640197754, 0.09788942337036133, 0.5674569230305445, 1791573407376182717, 
0.09602224826812744, 0.03713726997375488, 0.499277087503698, 1791573407406171158, 
-0.19172883033752441, -0.02255910634994507, 0.5060525818762911, 1791573407436172918, 
0.0383947491645813, 0.0990561842918396, 0.50355510321912, 1791573407466202343, 
0.024191081523895264, -0.035370588302612305, 0.4951523799507932, 1791573407496239557, 
0.07236874103546143, 0.018639981746673584, 0.5013264086760831, 1791573407526195949, 
0.10530561208724976, 0.03086942434310913, 0.4790202249260673, 1791573407557360857, 
-0.03500378131866455, 0.21688717603683472, 0.47824233908772346, 1791573407589704770, 
0.1538124680519104, 0.09323585033416748, 0.5917720703132548, 1791573407616198100, 
-0.1856033205986023, -0.10893028974533081, 0.5165666223885608, 1791573407646169786, 
0.1733541488647461, -0.03344649076461792, 0.5009189221904695, 1791573407676184039, 
0.037474870681762695, 0.057991981506347656, 0.4732422350493524, 1791573407706171211, 
-0.04105120897293091, 0.15051448345184326, 0.4552037294023981, 1791573407736179269, 
-0.16755974292755127, -0.021183490753173828, 0.46816727249780393, 1791573407766158482, 
-0.020541667938232422, 0.1343819499015808, 0.4876663269235926, 1791573407797517375, 
-0.27019578218460083, -0.023608505725860596, 0.4862896859995597, 1791573407829267827, 
0.04571235179901123, 0.10650473833084106, 0.5787712648192617, 1791573407856205076, 
0.0529823899269104, -0.07806068658828735, 0.5117178900349408, 1791573407886159780, 
0.04136937856674194, 0.30104267597198486, 0.3995344224652436, 1791573407909910033, 
0.27824121713638306, -0.10685938596725464, 0.5440233580932602, 1791573407946156082, 
-0.41717350482940674, 0.2004837989807129, 0.5216347666637738, 1791573407976150001, 
0.07386267185211182, -0.040753722190856934, 0.5235403135456679, 1791573408006157259, 
-0.0012232065200805664, 0.17509078979492188, 0.4810898490122215, 1791573408037982516, 
0.14948129653930664, -0.15963447093963623, 0.4926470989287059, 1791573408069293081, 
-0.05410724878311157, 0.19745761156082153, 0.5575281747468368, 1791573408096200948, 
-0.2905787229537964, 0.1120079755783081, 0.5033884871344401, 1791573408126158867, 
0.275437593460083, 0.0313488245010376, 0.5158713040543522, 1791573408156167161, 
-0.17235350608825684, -0.15852320194244385, 0.5364295904716585, 1791573408186136628, 
0.1299269199371338, 0.033170878887176514, 0.5088034656043456, 1791573408216146022, 
-0.15588665008544922, 0.04405087232589722, 0.47053567460079443, 1791573408246178502, 
0.009578943252563477, 0.08188438415527344, 0.4374011659891966, 1791573408277282664, 
-0.20360636711120605, 0.13679325580596924, 0.454518943104088, 1791573408309270876, 
0.287986695766449, 0.07843142747879028, 0.5625220881026294, 1791573408336207654, 
-0.01473987102508545, -0.04053795337677002, 0.5270736276183459, 1791573408366160317, 
0.19054639339447021, -0.06345725059509277, 0.5170921651981245, 1791573408396172313, 
-0.23813265562057495, 0.12511855363845825, 0.5055822592439061, 1791573408426209231, 
-0.016873180866241455, 0.023342132568359375, 0.4955301650815401, 1791573408456183105, 
-0.29357415437698364, 0.10926401615142822, 0.4938305241183596, 1791573408486385868, 
0.030314087867736816, 0.048452794551849365, 0.48106999237693704, 1791573408517593931, 
-0.19755536317825317, 0.010408520698547363, 0.4950298064792544, 1791573408548134464, 
0.1614333987236023, -0.06218987703323364, 0.52408156277097, 1791573408576226636, 
-0.31230616569519043, 0.11597061157226562, 0.5069779670496214, 1791573408605114540, 
-0.2658824920654297, 0.1744735836982727, 0.4858541536061314, 1791573408636147670, 
-0.2577551603317261, 0.15105921030044556, 0.5380253460434459, 1791573408665120969, 
-0.3693948984146118, -0.18371498584747314, 0.5066171827280556, 1791573408696183178, 
0.13421237468719482, 0.03306299448013306, 0.4994344720592482, 1791573408726167834, 
-0.0067212581634521484, -0.07754439115524292, 0.4542669759259241, 1791573408757288230, 
-0.053985595703125, 0.35561227798461914, 0.4468835254125432, 1791573408789491926, 
-0.26642632484436035, 0.025080859661102295, 0.5491298775268987, 1791573408816205999, 
-0.022300899028778076, 0.1758527159690857, 0.5393783017860786, 1791573408845109803, 
-0.048610687255859375, -0.22475075721740723, 0.5164674574257218, 1791573408875119513, 
0.0041103363037109375, 0.009261369705200195, 0.508372631688101, 1791573408905125832, 
0.00963294506072998, 0.07663315534591675, 0.4583573511950946, 1791573408936142371, 
0.020168721675872803, 0.3172813653945923, 0.4701687590389005, 1791573408966163275, 
-0.07212585210800171, -0.12227082252502441, 0.4721508000520643, 1791573408997986187, 
-0.07598507404327393, 0.21764129400253296, 0.5013876229139037, 1791573409029627904, 
0.2758316397666931, -0.08293557167053223, 0.5835871230607516, 1791573409056187231, 
0.03953361511230469, 0.06589680910110474, 0.5104988791896069, 1791573409085117556, 
0.20538020133972168, 0.07635122537612915, 0.4676269965750836, 1791573409116147124, 
-0.28687047958374023, 0.35045456886291504, 0.505929409094964, 1791573409145120910, 
0.4839653968811035, -0.06859338283538818, 0.4922603020217887, 1791573409176168941, 
-0.18028175830841064, 0.0771673321723938, 0.5572991651604271, 1791573409205131823, 
0.22686153650283813, -0.12389570474624634, 0.48323427597251367, 1791573409237324453, 
-0.2554842233657837, 0.2287435531616211, 0.4595186965634584, 1791573409269329106, 
-0.06991010904312134, 0.1503315567970276, 0.5548371842955511, 1791573409296196962, 
-0.37393540143966675, 0.21638190746307373, 0.5246734010040317, 1791573409325111551, 
0.19700509309768677, -0.058658480644226074, 0.48485478725601355, 1791573409356134392, 
-0.13793587684631348, 0.026971518993377686, 0.5260539232157216, 1791573409385118356, 
0.10996419191360474, 0.03021240234375, 0.505039247894254, 1791573409415130988, 
-0.24008393287658691, 0.3378306031227112, 0.4832336263659416, 1791573409446146553, 
-0.13395023345947266, -0.06820785999298096, 0.4851210209552674, 1791573409477638202, 
-0.2687540054321289, -0.13667607307434082, 0.4849773013235677, 1791573409510074732, 
0.37764763832092285, 0.2369617223739624, 0.5788071512645454, 1791573409536210175, 
-0.2743936777114868, 0.21684211492538452, 0.48892670964747087, 1791573409565119300, 
0.055235862731933594, 0.06716680526733398, 0.4640018889727696, 1791573409596148357, 
0.3548966646194458, 0.1796337366104126, 0.5223641094070082, 1791573409625117100, 
-0.10075587034225464, 0.1912807822227478, 0.5104176514430797, 1791573409655106500, 
0.31474268436431885, -0.0059043169021606445, 0.5032142806564897, 1791573409685124788, 
-0.6285592913627625, 0.12889784574508667, 0.45516272717585965, 1791573409717371154, 
0.6112625598907471, 0.18378162384033203, 0.4301865764511874, 1791573409749546255, 
-0.5236825346946716, -0.08193141222000122, 0.5454686097937124, 1791573409776259848, 
0.38504558801651, 0.15900880098342896, 0.5265131744113366, 1791573409806143425, 
-0.20889759063720703, 0.28106075525283813, 0.5412503050821689, 1791573409836534715, 
0.24150466918945312, 0.04181969165802002, 0.5101150710908103, 1791573409866138772, 
-0.0009613037109375, -0.12434405088424683, 0.5051718807783107, 1791573409895093724, 
-0.24607616662979126, 0.20373940467834473, 0.4903498973912158, 1791573409925116818, 
-0.09844326972961426, 0.19379526376724243, 0.45577838470607707, 1791573409957826418, 
-0.04242974519729614, 0.0638309121131897, 0.48959516240266565, 1791573409989474371, 
0.36510807275772095, 0.03087925910949707, 0.590290146421539, 1791573410016176496, 
0.011339187622070312, 0.2838195562362671, 0.535442668568803, 1791573410045096706, 
-0.18297600746154785, -0.06859523057937622, 0.515241678717551, 1791573410075121610, 
-0.2550826668739319, 0.07525765895843506, 0.4954651326063957, 1791573410106075372, 
-0.034806132316589355, 0.07081180810928345, 0.5088446225299353, 1791573410135097945, 
-0.25867021083831787, 0.025382399559020996, 0.4701404062445701, 1791573410165128090, 
-0.34323328733444214, -0.01629084348678589, 0.4320819213996259, 1791573410197444609, 
0.35337430238723755, 0.2220170497894287, 0.4664783665345219, 1791573410229403999, 
-0.31613922119140625, 0.13935816287994385, 0.5815757708836137, 1791573410256152142, 
0.008523225784301758, -0.258037805557251, 0.5211207791585033, 1791573410286064210, 
0.08958393335342407, 0.16944122314453125, 0.5337075850597642, 1791573410315096209, 
0.15391206741333008, 0.2693480849266052, 0.48204561583962924, 1791573410346081049, 
0.18125766515731812, 0.006862223148345947, 0.5139545040213942, 1791573410375131171, 
-0.19247901439666748, 0.06465071439743042, 0.5242304420005354, 1791573410405135281, 
0.22131621837615967, 0.08880889415740967, 0.4847808468770989, 1791573410437434628, 
-0.23810863494873047, -0.07528680562973022, 0.47867089256926765, 1791573410469844420, 
0.24169546365737915, 0.20386075973510742, 0.5940364022126998, 1791573410495120220, 
-0.4020393490791321, 0.14785164594650269, 0.47341003180393215, 1791573410526060103, 
0.23747330904006958, 0.0014495253562927246, 0.4799080727434558, 1791573410556085723, 
-0.2505979537963867, -0.24047106504440308, 0.5266977553907097, 1791573410586091441, 
0.3202413320541382, 0.2320536971092224, 0.5391197552184238, 1791573410615105749, 
-0.1677764654159546, 0.3187599182128906, 0.4933207378437983, 1791573410645110555, 
0.2210959792137146, -0.1330479383468628, 0.45073738544506836, 1791573410677491451, 
-0.198452889919281, -0.03583943843841553, 0.4868787320316437, 1791573410709633170, 
-0.20643538236618042, -0.010269999504089355, 0.5661077111624215, 1791573410746041961, 
0.056797683238983154, 0.24327337741851807, 0.5121827259601416, 1791573410776339588, 
-0.36269545555114746, 0.19404083490371704, 0.5266864115229565, 1791573410806090381, 
-0.0031152963638305664, 0.01596170663833618, 0.514272995403318, 1791573410837440747, 
-0.2370629906654358, 0.022947609424591064, 0.4914006375115937, 1791573410869423964, 
0.3784957528114319, 0.03001481294631958, 0.5613648446662782, 1791573410896153028, 
-0.2517983317375183, 0.247991144657135, 0.4554544603995711, 1791573410926032821, 
-0.14470034837722778, 0.01533973217010498, 0.46429217062836353, 1791573410956055721, 
-0.16725295782089233, 0.20684337615966797, 0.5167896920552876, 1791573410986049424, 
-0.042508840560913086, 0.22723418474197388, 0.5177208211435624, 1791573411016069291, 
0.16424602270126343, -0.05049175024032593, 0.5064298817782749, 1791573411045109693, 
-0.3666747212409973, 0.08377790451049805, 0.4408891085337889, 1791573411077445399, 
0.21136164665222168, 0.27034080028533936, 0.4361167934271802, 1791573411109851740, 
-0.2717438340187073, 0.0318605899810791, 0.5534857423493308, 1791573411145117017, 
0.11787450313568115, 0.13638490438461304, 0.4932772832256306, 1791573411176368246, 
-0.2352849841117859, 0.20124971866607666, 0.5283199772304059, 1791573411206182183, 
0.028410017490386963, -0.01613152027130127, 0.5178010993115663, 1791573411237101034, 
-0.39807653427124023, 0.17340689897537231, 0.5261638583898709, 1791573411268589390, 
0.18014651536941528, 0.10077595710754395, 0.6079091583503831, 1791573411296134638, 
-0.11475998163223267, 0.01647186279296875, 0.5048723135995857, 1791573411326034298, 
0.4002343416213989, -0.16683131456375122, 0.45982257433386065, 1791573411356354892, 
-0.25810515880584717, 0.20864272117614746, 0.49991830931828046, 1791573411386057068, 
0.04223930835723877, 0.2650965452194214, 0.5120634396399761, 1791573411416082629, 
-0.14179480075836182, -0.04879319667816162, 0.525358751279622, 1791573411445116385, 
-0.460409939289093, 0.19446659088134766, 0.4666795158859018, 1791573411477453829, 
-0.0348779559135437, 0.26192474365234375, 0.4601438612021964, 1791573411509041743, 
0.18273109197616577, 0.31757986545562744, 0.5376451087947082, 1791573411546029310, 
0.12946105003356934, 0.08689743280410767, 0.5096778606382112, 1791573411576294773, 
0.10477995872497559, 0.014653444290161133, 0.48336596994564657, 1791573411606087635, 
0.2872053384780884, 0.15847158432006836, 0.4615763679471145, 1791573411637481919, 
-0.39909571409225464, 0.1814621090888977, 0.46890956364423236, 1791573411669764496, 
-0.013342201709747314, 0.10785609483718872, 0.6144114099876392, 1791573411695116957, 
-0.2159833312034607, -0.04767918586730957, 0.49295695181132704, 1791573411726046725, 
0.1285029649734497, 0.03722190856933594, 0.4960435283081827, 1791573411756063263, 
-0.012658774852752686, 0.35518956184387207, 0.49695387404119884, 1791573411786277480, 
0.07919889688491821, 0.2529534697532654, 0.5146593779047851, 1791573411816091988, 
0.15994387865066528, -0.11579662561416626, 0.5347101222307034, 1791573411845112307, 
-0.3014458417892456, 0.15549099445343018, 0.4675984933979332, 1791573411877155145, 
0.029521286487579346, 0.2151806354522705, 0.44990820777064594, 1791573411909436279, 
-0.13694405555725098, 0.044263601303100586, 0.5605838698581581, 1791573411936501737, 
0.02307051420211792, 0.13007473945617676, 0.5509879733186873, 1791573411966051459, 
-0.09391158819198608, 0.07332438230514526, 0.46454555606160325, 1791573411988970351, 
-0.29239654541015625, -0.18811577558517456, 0.5877530595827863, 1791573412015136638, 
0.22793561220169067, 0.21433591842651367, 0.46343436105494823, 1791573412046081033, 
-0.2213488221168518, 0.2212030291557312, 0.4732523773019557, 1791573412076059793, 
0.14327293634414673, -0.01580291986465454, 0.4812557952826582, 1791573412106079545, 
-0.15720713138580322, -0.031781017780303955, 0.5066335934340797, 1791573412136329084, 
0.33286017179489136, 0.25074297189712524, 0.5158906470249023, 1791573412166046227, 
-0.48307865858078003, 0.1790618896484375, 0.4905104250786802, 1791573412198344434, 
0.05625838041305542, 0.040619850158691406, 0.4982243447520604, 1791573412229611297, 
-0.1526506543159485, -0.03364157676696777, 0.5527078083401122, 1791573412256898149, 
-0.021327078342437744, 0.10167652368545532, 0.49754825306620476, 1791573412286052882, 
0.30353742837905884, 0.23599326610565186, 0.4826886182040688, 1791573412316047920, 
0.029092848300933838, 0.2110804319381714, 0.5131174964342136, 1791573412346028148, 
0.021930277347564697, -0.058958232402801514, 0.518332776148159, 1791573412376156952, 
-0.30107206106185913, 0.07474017143249512, 0.523090965244439, 1791573412406021203, 
0.19464731216430664, 0.1715119481086731, 0.45681373447314666, 1791573412437788350, 
-0.4626999497413635, 0.18165111541748047, 0.4444805461708774, 1791573412469529883, 
0.34062856435775757, 0.014175236225128174, 0.554710509092157, 1791573412496172410, 
-0.44190025329589844, 0.016064465045928955, 0.4937700233683236, 1791573412527047241, 
0.16131669282913208, 0.17212212085723877, 0.5122815687905546, 1791573412556339846, 
-0.33485978841781616, 0.2448664903640747, 0.5238085675533417, 1791573412586066106, 
0.18440794944763184, -0.011718511581420898, 0.5206791196870717, 1791573412616055502, 
-0.31195616722106934, -0.07472115755081177, 0.5257762499187306, 1791573412646018367, 
0.3094419240951538, 0.10542118549346924, 0.48629794695749984, 1791573412677797177, 
-0.4517190456390381, 0.4606345295906067, 0.47967335083170204, 1791573412709061013, 
-0.1364423632621765, -0.038841962814331055, 0.5420510644685204, 1791573412736090276, 
-0.014686644077301025, -0.06407743692398071, 0.4884116155753589, 1791573412766021999, 
-0.17105185985565186, -0.020916521549224854, 0.4828353962839687, 1791573412796005309, 
0.4845234751701355, 0.5056182146072388, 0.47335959281650314, 1791573412826001888, 
-0.1584089994430542, 0.08255016803741455, 0.501027588919292, 1791573412856140987, 
0.24562537670135498, -0.016766250133514404, 0.499903467475477, 1791573412886057983, 
-0.3147556781768799, 0.06989246606826782, 0.4758791946017154, 1791573412917787906, 
0.2863711714744568, 0.07788360118865967, 0.46885163534705515, 1791573412949050950, 
-0.4776151180267334, 0.45871543884277344, 0.5742880128700704, 1791573412975997853, 
0.37776046991348267, -0.04291588068008423, 0.5118316243257881, 1791573413005983750, 
-0.313942015171051, -0.016513347625732422, 0.5307911878305541, 1791573413035973877, 
0.15252071619033813, 0.026528596878051758, 0.529643103378877, 1791573413065993243, 
-0.2396564483642578, 0.38853633403778076, 0.5341128748211189, 1791573413095999189, 
0.13675594329833984, 0.007721543312072754, 0.5199987116305681, 1791573413126045741, 
-0.19664055109024048, -0.06737387180328369, 0.470342209856555, 1791573413157994056, 
0.42833417654037476, 0.20994305610656738, 0.49047392514028465, 1791573413188954706, 
-0.19743460416793823, 0.3384491801261902, 0.5537613733015492, 1791573413215988828, 
-0.22965961694717407, -0.028065264225006104, 0.5071201321912832, 1791573413245974645, 
-0.18310558795928955, -0.04721403121948242, 0.5052841661108732, 1791573413275980797, 
-0.031459808349609375, 0.025079846382141113, 0.5039669604695173, 1791573413305991164, 
0.15897804498672485, 0.34219813346862793, 0.48129299614894877, 1791573413336028217, 
0.36253035068511963, 0.20080214738845825, 0.47733688426419746, 1791573413366011043, 
-0.17575323581695557, -0.06822645664215088, 0.47012776855863053, 1791573413397821269, 
-0.17955684661865234, -0.06153756380081177, 0.5001823847692319, 1791573413428745807, 
-0.008838534355163574, 0.26667726039886475, 0.5571462652140079, 1791573413456042666, 
-0.3002409338951111, 0.16376382112503052, 0.5038059806960294, 1791573413485988779, 
0.08425652980804443, -0.03825610876083374, 0.4955801724176565, 1791573413515992102, 
0.04752075672149658, 0.1487448811531067, 0.4856780505834925, 1791573413545987120, 
0.13257700204849243, 0.372700572013855, 0.48104881849111203, 1791573413575974708, 
-0.17601531744003296, 0.25383371114730835, 0.49814380773165484, 1791573413606016390, 
-0.19352859258651733, -0.11675572395324707, 0.4882546991001755, 1791573413637581747, 
-0.3477024435997009, -0.054881155490875244, 0.49309337642044976, 1791573413669076929, 
0.30364686250686646, 0.44190239906311035, 0.557508365104602, 1791573413695958750, 
-0.3162073493003845, 0.20074349641799927, 0.48332699408662283, 1791573413725967093, 
0.17719101905822754, -0.09890741109848022, 0.5010012002777627, 1791573413755997919, 
-0.2038854956626892, -0.13215947151184082, 0.5358142039896441, 1791573413785959677, 
0.4168969392776489, 0.26981019973754883, 0.5125012542606667, 1791573413816063249, 
-0.4246479272842407, 0.28578370809555054, 0.5208263760661183, 1791573413845099794, 
0.19376105070114136, 0.0030643343925476074, 0.4700302046092644, 1791573413877596298, 
-0.10574090480804443, 0.024244189262390137, 0.4900621019007097, 1791573413908430672, 
-0.12193769216537476, 0.057074129581451416, 0.5202465712700347, 1791573413945976443, 
-0.013893663883209229, 0.15258347988128662, 0.4824446944612581, 1791573413976006553, 
-0.013154923915863037, 0.03348648548126221, 0.4951695065303963, 1791573414006487257, 
-0.17120051383972168, -0.05086129903793335, 0.4983747379276948, 1791573414037606420, 
0.10800296068191528, 0.2657734751701355, 0.5203298622978383, 1791573414067131938, 
-0.003573000431060791, 0.2538544535636902, 0.5021972652122659, 1791573414095952382, 
-0.05838155746459961, -0.062110960483551025, 0.4890522193957382, 1791573414125963066, 
-0.13675552606582642, -0.06552523374557495, 0.5087488862572463, 1791573414155975760, 
0.10739749670028687, 0.3652203679084778, 0.5012670709168707, 1791573414185939466, 
-0.32757192850112915, 0.17719119787216187, 0.5008230058613757, 1791573414215961669, 
0.1109800934791565, -0.13399970531463623, 0.5205751845049479, 1791573414246039269, 
0.12041032314300537, 0.04066962003707886, 0.4728066096672968, 1791573414277880983, 
-0.19169920682907104, 0.2548421621322632, 0.48988612367126544, 1791573414308130583, 
-0.15595901012420654, 0.16823744773864746, 0.5686243090646416, 1791573414335125337, 
-0.1639440655708313, -0.11167359352111816, 0.5070986996794161, 1791573414365966603, 
-0.07232421636581421, 0.0716281533241272, 0.5008595018042176, 1791573414395961196, 
0.1465778946876526, 0.1709941029548645, 0.5119938705929569, 1791573414424941824, 
0.03600573539733887, 0.2673494815826416, 0.48331295204825525, 1791573414455932472, 
0.03979790210723877, -0.10725134611129761, 0.5193456558799602, 1791573414484939890, 
-0.12451356649398804, 0.0023362040519714355, 0.4632872585857651, 1791573414517949266, 
0.06372684240341187, 0.17436116933822632, 0.5065302572452735, 1791573414547771208, 
-0.0012736320495605469, 0.012457668781280518, 0.5406920542209286, 1791573414575966267, 
-0.0561901330947876, 0.031018733978271484, 0.5056356835459267, 1791573414604918011, 
0.036433279514312744, 0.24525237083435059, 0.477057342588401, 1791573414634992981, 
0.2294292449951172, 0.1545732021331787, 0.4970897669420322, 1791573414664918863, 
0.035650432109832764, 0.004654943943023682, 0.5126943916586595, 1791573414694946410, 
0.1759820580482483, -0.050348877906799316, 0.4938561095250392, 1791573414725942669, 
-0.3537229895591736, 0.27545565366744995, 0.4799760196618459, 1791573414757066015, 
-0.12429201602935791, 0.162042498588562, 0.47046815224272914, 1791573414787819414, 
-0.11348801851272583, 0.08046835660934448, 0.5445342472246418, 1791573414825909928, 
-0.10587465763092041, -0.02929246425628662, 0.5248162547174587, 1791573414855964427, 
-0.13443142175674438, 0.2739189863204956, 0.49325949831938415, 1791573414886051167, 
0.21127134561538696, 0.06889116764068604, 0.48325138249058536, 1791573414917641839, 
-0.24869602918624878, -0.09286391735076904, 0.5163134426618159, 1791573414947733448, 
0.2209014892578125, 0.13931429386138916, 0.5346620112474136, 1791573414975923335, 
-0.4952835440635681, 0.0770953893661499, 0.503627774620436, 1791573415005931009, 
0.4708433747291565, 0.18545657396316528, 0.5042566258332162, 1791573415035923797, 
-0.304881751537323, 0.06161290407180786, 0.5140353760149979, 1791573415065916087, 
0.18404847383499146, -0.04444831609725952, 0.4925404275652394, 1791573415095919198, 
0.13860684633255005, 0.44859302043914795, 0.47994077260599627, 1791573415125918062, 
0.004925131797790527, -0.013702630996704102, 0.49418154875415365, 1791573415156872547, 
0.25630050897598267, -0.04091084003448486, 0.498345185811194, 1791573415188752407, 
-0.21530234813690186, 0.05414539575576782, 0.5763335148723334, 1791573415216017936, 
-0.1191720962524414, 0.027294695377349854, 0.49616713922081257, 1791573415246082314, 
-0.07949525117874146, -0.08534407615661621, 0.4856530522436391, 1791573415276069255, 
-0.5406607985496521, -0.06986898183822632, 0.4811579881139217, 1791573415305890663, 
0.5160923004150391, 0.15442532300949097, 0.5057126763462348, 1791573415335021946, 
-0.509323239326477, 0.227929949760437, 0.4963200375717573, 1791573415366387517, 
0.6647156476974487, -0.008413195610046387, 0.5186959262363904, 1791573415397102274, 
-0.22687572240829468, 0.05074286460876465, 0.49990456842628817, 1791573415428414655, 
0.3953704237937927, 0.1372448205947876, 0.5436302657372174, 1791573415455909349, 
-0.1257638931274414, 0.2521241307258606, 0.49207954225952194, 1791573415485862672, 
0.25742948055267334, 0.07364064455032349, 0.45152909510553385, 1791573415508373392, 
-0.3041849136352539, -0.011058151721954346, 0.5464703005042928, 1791573415545877280, 
0.08666592836380005, 0.11735159158706665, 0.5003283134956779, 1791573415575903686, 
-0.3851449489593506, 0.1749582290649414, 0.5063678121642116, 1791573415605941243, 
0.1455608606338501, -0.03961211442947388, 0.46446196967194114, 1791573415637954646, 
-0.09102237224578857, 0.14852148294448853, 0.4670429960321448, 1791573415668440995, 
0.2626307010650635, 0.13818776607513428, 0.5273830493902191, 1791573415695884471, 
-0.1415582299232483, -0.09040188789367676, 0.509958095775595, 1791573415725876890, 
0.07366997003555298, -0.06322580575942993, 0.515389797439989, 1791573415755876217, 
-0.6828441619873047, 0.2640894651412964, 0.5078694937937034, 1791573415785896925, 
0.5631171464920044, 0.041558146476745605, 0.4894518036945136, 1791573415815913399, 
-0.20316016674041748, -0.13300293684005737, 0.4917171277859911, 1791573415846168754, 
0.04893916845321655, -0.05163639783859253, 0.48962234216811584, 1791573415877721320, 
-0.12032979726791382, 0.44480663537979126, 0.49006530679455873, 1791573415908455780, 
-0.36197859048843384, -0.0710257887840271, 0.5409614909455049, 1791573415945879887, 
0.02598738670349121, -0.18680435419082642, 0.49187712032735487, 1791573415975896776, 
0.5304962396621704, 0.4441794753074646, 0.4818299309414546, 1791573416005930071, 
-0.2479536533355713, -0.003417670726776123, 0.4852294728354393, 1791573416038334297, 
0.2754526734352112, 0.03969144821166992, 0.5255068782692036, 1791573416068500906, 
-0.028560519218444824, 0.13503211736679077, 0.573421412412208, 1791573416095866910, 
-0.036103248596191406, -0.012657225131988525, 0.526637406368709, 1791573416125875016, 
0.013946294784545898, 0.2878245711326599, 0.5284519371916085, 1791573416155875403, 
-0.07626187801361084, -0.010760962963104248, 0.4765043259425879, 1791573416185891102, 
0.17506760358810425, -0.13484328985214233, 0.4522946001848975, 1791573416215920008, 
-0.11696368455886841, 0.3196163773536682, 0.501955181888742, 1791573416245968348, 
-0.05927664041519165, 0.17948639392852783, 0.48477914545481743, 1791573416277757213, 
-0.33280545473098755, 0.11207693815231323, 0.5002836268528724, 1791573416307846516, 
0.08863943815231323, 0.07193893194198608, 0.5163118220843544, 1791573416345865451, 
0.0233457088470459, -0.00033402442932128906, 0.49000279151462145, 1791573416375858976, 
0.3447558283805847, 0.14183121919631958, 0.4785140924224109, 1791573416405934311, 
-0.41063636541366577, 0.170956552028656, 0.4683129648294368, 1791573416437728515, 
-0.11924678087234497, 0.11101382970809937, 0.5102109417488461, 1791573416468502641, 
-0.16549360752105713, -0.13636434078216553, 0.5587887572944619, 1791573416495892909, 
0.36066722869873047, 0.05119138956069946, 0.48299609394494075, 1791573416525949847, 
-0.33977001905441284, 0.24469733238220215, 0.503867234033746, 1791573416555931292, 
0.334364116191864, -0.05987703800201416, 0.5362932386844413, 1791573416585046192, 
-0.2874903082847595, -0.02364891767501831, 0.5056897952882787, 1791573416615994627, 
0.06273382902145386, 0.15753644704818726, 0.5029112729121732, 1791573416646059944, 
-0.09240752458572388, 0.11788100004196167, 0.46750483126459774, 1791573416678174525, 
-0.14384114742279053, -0.009959816932678223, 0.5019312228691818, 1791573416707853263, 
-0.17004138231277466, 0.09638738632202148, 0.5307251069415078, 1791573416735847783, 
0.09383589029312134, 0.3295304775238037, 0.5013566910079966, 1791573416765855638, 
-0.02509695291519165, -0.042600154876708984, 0.4893968095911762, 1791573416795848352, 
-0.1052389144897461, 0.0022426247596740723, 0.4721731951532913, 1791573416825879425, 
0.049118638038635254, 0.3716104030609131, 0.4977535442693282, 1791573416855871823, 
-0.2421005368232727, 0.05328136682510376, 0.5170377127690468, 1791573416885935704, 
0.09084326028823853, -0.078621506690979, 0.4916016332978487, 1791573416917808681, 
-0.38996440172195435, 0.05101001262664795, 0.5059946538448487, 1791573416947853796, 
0.2779873013496399, 0.14383500814437866, 0.5478403724588353, 1791573416975830837, 
-0.25029587745666504, 0.2200533151626587, 0.5068900091692173, 1791573417005841802, 
-0.03179067373275757, -0.1956014633178711, 0.4947680475010365, 1791573417035862172, 
0.2373896837234497, 0.2948147654533386, 0.4923356163504786, 1791573417065869791, 
-0.35994958877563477, 0.14165115356445312, 0.4876454888525367, 1791573417095888613, 
-0.15478593111038208, -0.18353277444839478, 0.489226319927772, 1791573417126468003, 
0.31685131788253784, 0.3655012249946594, 0.4949936755516272, 1791573417157767530, 
0.3256725072860718, 0.07268822193145752, 0.5174854844030503, 1791573417187705805, 
-0.02136385440826416, -0.08502840995788574, 0.5547825443471416, 1791573417215832719, 
-0.1550493836402893, 0.13045090436935425, 0.5068474065452234, 1791573417245866564, 
0.15273720026016235, 0.07885873317718506, 0.5054948798237223, 1791573417275848986, 
-0.417391300201416, 0.1622321605682373, 0.5213600331036263, 1791573417305871815, 
0.19665873050689697, -0.13424968719482422, 0.506494899519867, 1791573417335848147, 
0.3710840940475464, 0.18651682138442993, 0.49616899815062815, 1791573417366017646, 
-0.14742666482925415, 0.06987452507019043, 0.49341950025037534, 1791573417398057289, 
0.1760604977607727, -0.08373355865478516, 0.5214227908215211, 1791573417427872328, 
-0.12391698360443115, 0.30020731687545776, 0.5499579316507374, 1791573417455834120, 
-0.30932092666625977, -0.007613718509674072, 0.5293275440791417, 1791573417485856184, 
0.058118224143981934, 0.08552932739257812, 0.5361518851600248, 1791573417515853580, 
0.19183743000030518, 0.02615267038345337, 0.4911109648136622, 1791573417545845383, 
-0.635225772857666, 0.09423160552978516, 0.45895982567859783, 1791573417575836254, 
0.28918665647506714, 0.030465781688690186, 0.4698529376881019, 1791573417605847250, 
0.15878671407699585, 0.0752905011177063, 0.4428719058864435, 1791573417638261159, 
0.6260490417480469, 0.15586316585540771, 0.4883171795673901, 1791573417667894631, 
-0.4299577474594116, 0.14835774898529053, 0.556850130004497, 1791573417695832850, 
0.38030946254730225, 0.0131148099899292, 0.5228569644257038, 1791573417725857613, 
-0.18859976530075073, 0.03281980752944946, 0.511136792973547, 1791573417755839016, 
-0.17729568481445312, 0.026411712169647217, 0.4947814626486564, 1791573417785822673, 
0.39747971296310425, 0.21284401416778564, 0.4771330761615458, 1791573417815839666, 
-0.015098154544830322, 0.021273016929626465, 0.48538570865455555, 1791573417845876916, 
-0.22903567552566528, 0.12486803531646729, 0.4790852753487187, 1791573417878312210, 
0.16739511489868164, 0.20322740077972412, 0.552467729710957, 1791573417907094894, 
0.1766548752784729, 0.10538667440414429, 0.5207402798766844, 1791573417945975017, 
-0.23988813161849976, -0.006679952144622803, 0.47495571762551975, 1791573417975965943, 
0.2659398317337036, 0.13737529516220093, 0.46359048273022735, 1791573418006197206, 
0.25087881088256836, -0.14924800395965576, 0.4464889030334241, 1791573418037838368, 
-0.37930506467819214, 0.1606695055961609, 0.471296738106496, 1791573418068834138, 
0.5663852691650391, -0.05438494682312012, 0.5249417063413524, 1791573418105860170, 
-0.5496922135353088, 0.137958824634552, 0.48380831158649695, 1791573418135866325, 
0.2181987166404724, 0.12920063734054565, 0.4888939386326465, 1791573418165823970, 
-0.0020037293434143066, 0.17823034524917603, 0.4836139392874089, 1791573418197845788, 
0.08731681108474731, -0.033880650997161865, 0.5210207950834669, 1791573418228218437, 
0.22574031352996826, 0.15183252096176147, 0.5657381418984488, 1791573418255850510, 
-0.10956507921218872, 0.14705872535705566, 0.48456030407206935, 1791573418285824740, 
-0.16954255104064941, -0.054599761962890625, 0.42465856485292397, 1791573418307902956, 
0.05498892068862915, 0.0865398645401001, 0.5088942984705015, 1791573418345847410, 
-0.24121785163879395, 0.3146524429321289, 0.5186187525812038, 1791573418375846709, 
0.23958605527877808, 0.06311297416687012, 0.5144305131097732, 1791573418406247598, 
-0.05790376663208008, -0.12314385175704956, 0.49324051534657276, 1791573418438069549, 
-0.542251706123352, 0.19636332988739014, 0.5010581060630569, 1791573418467852646, 
0.4818960428237915, 0.16412979364395142, 0.53602571514887, 1791573418495831245, 
0.23948246240615845, 0.003793060779571533, 0.4960104744568445, 1791573418525825545, 
0.17101019620895386, 0.11242252588272095, 0.4991662109380162, 1791573418555839926, 
-0.2648662328720093, 0.13107186555862427, 0.5167362848235145, 1791573418585823819, 
0.07974106073379517, -0.08174961805343628, 0.5080410181928151, 1791573418615774073, 
-0.1643471121788025, 0.07057082653045654, 0.49350959024363766, 1791573418645877808, 
0.01825493574142456, 0.37911456823349, 0.4675929268718978, 1791573418677863040, 
-0.008661210536956787, -0.12569516897201538, 0.5183416055028991, 1791573418707747972, 
0.3354852795600891, 0.19393497705459595, 0.5377883686184156, 1791573418745831071, 
-0.19694876670837402, 0.4602828621864319, 0.4852356506770385, 1791573418775826533, 
0.3161781430244446, -0.2485080361366272, 0.4861020461184791, 1791573418805911760, 
-0.05817693471908569, 0.01748788356781006, 0.4708322489762165, 1791573418837890077, 
-0.31805968284606934, 0.25637757778167725, 0.5505213918971285, 1791573418865813521, 
0.0979616641998291, 0.09692800045013428, 0.48866883029484975, 1791573418895814823, 
0.15209448337554932, 0.3494851589202881, 0.48662460868536994, 1791573418925815585, 
-0.4811270236968994, -0.06619971990585327, 0.5041077473495432, 1791573418955944767, 
0.7298485040664673, -0.14378440380096436, 0.5112039089775373, 1791573418985798113, 
-0.3501925468444824, 0.27859002351760864, 0.5246018493432907, 1791573419015788792, 
0.043324053287506104, -0.028245389461517334, 0.4971585911997797, 1791573419046302980, 
0.16957294940948486, 0.034462034702301025, 0.47838015796882044, 1791573419077918990, 
-0.10267072916030884, -0.07429236173629761, 0.5047232779691577, 1791573419107864754, 
-0.1922142505645752, 0.02155226469039917, 0.5280058392465157, 1791573419145801629, 
0.07759922742843628, -0.08824270963668823, 0.5188598110354268, 1791573419175859630, 
0.16603559255599976, 0.27227121591567993, 0.5112227532295291, 1791573419206144076, 
-0.15881913900375366, -0.09881097078323364, 0.46783118001824936, 1791573419238294320, 
0.11876732110977173, 0.21270352602005005, 0.5568883116843009, 1791573419265930246, 
-0.04694730043411255, 0.3315749764442444, 0.5199692019062816, 1791573419295983667, 
-0.2991657257080078, 0.1793118119239807, 0.5023415857241225, 1791573419325918081, 
0.46649277210235596, -0.09138578176498413, 0.5042904106208125, 1791573419355796988, 
0.07418239116668701, 0.08429902791976929, 0.5141053427362626, 1791573419385808864, 
0.2737966775894165, -0.05514472723007202, 0.49995112258777424, 1791573419416044197, 
-0.08721166849136353, 0.2207176685333252, 0.48636998839142653, 1791573419446248082, 
0.1712445616722107, -0.01845574378967285, 0.4734719386071373, 1791573419478165637, 
-0.18729287385940552, 0.08002322912216187, 0.5525935025037881, 1791573419505843484, 
-0.22547346353530884, 0.14593809843063354, 0.5147390600277235, 1791573419535898227, 
-0.03663736581802368, -0.13038796186447144, 0.5050245291567255, 1791573419565794177, 
0.034262001514434814, 0.2122473120689392, 0.473419998522881, 1791573419595786905, 
-0.004644274711608887, 0.3352499008178711, 0.4907636318303715, 1791573419625784990, 
-0.09980899095535278, -0.13257920742034912, 0.513159148342721, 1791573419655747908, 
0.11059880256652832, 0.1848340630531311, 0.4996277349347174, 1791573419686318595, 
-0.30021852254867554, 0.004052162170410156, 0.47284502269542317, 1791573419717900396, 
0.10545951128005981, -0.0575718879699707, 0.5180832178244177, 1791573419745857130, 
0.3939310908317566, 0.32651257514953613, 0.513229475278414, 1791573419775764619, 
-0.3599041700363159, -0.057405173778533936, 0.5567455424220222, 1791573419805779274, 
0.2783243656158447, -0.06263089179992676, 0.539224135302787, 1791573419835918591, 
-0.2848348617553711, 0.4170369505882263, 0.5193653922164455, 1791573419865756952, 
-0.13904041051864624, -0.2725731134414673, 0.5067807863537532, 1791573419895756153, 
0.10780620574951172, 0.1129387617111206, 0.49084152773933143, 1791573419925889828, 
-0.33001023530960083, 0.3847233057022095, 0.45278664928599105, 1791573419957931155, 
0.467393159866333, -0.15981388092041016, 0.5081223612935705, 1791573419985990475, 
-0.17426210641860962, 0.20050972700119019, 0.4874782783691163, 1791573420015771551, 
-0.23732030391693115, 0.052279114723205566, 0.5032079472099517, 1791573420045765931, 
0.1421859860420227, -0.047064006328582764, 0.5081233027414228, 1791573420075728683, 
0.22556310892105103, 0.32714641094207764, 0.5070840388886525, 1791573420105746496, 
0.02704566717147827, -0.007955312728881836, 0.4845261798485552, 1791573420135913028, 
-0.12307137250900269, -0.10290473699569702, 0.5070592916526434, 1791573420166035173, 
-0.6699814796447754, 0.2732735276222229, 0.48450831867212, 1791573420198321998, 
-0.05706143379211426, 0.010480821132659912, 0.5528665037452786, 1791573420225852281, 
-0.066547691822052, 0.1062847375869751, 0.4927112137568746, 1791573420255749745, 
-0.17691761255264282, 0.16326993703842163, 0.5130472988075401, 1791573420285769030, 
-0.06372404098510742, -0.11034107208251953, 0.5148439532093283, 1791573420315723715, 
-0.14845502376556396, 0.2228361964225769, 0.5302080255409595, 1791573420345756151, 
-0.30332040786743164, -0.00972294807434082, 0.5058495156517758, 1791573420375804667, 
-0.003674745559692383, -0.062352001667022705, 0.4747066358775991, 1791573420405914468, 
0.15264278650283813, 0.4850189685821533, 0.4727704473969307, 1791573420437929680, 
0.014056742191314697, -0.10776865482330322, 0.556252208290808, 1791573420465808562, 
-0.15943199396133423, -0.12285274267196655, 0.5097822723384653, 1791573420495719571, 
0.03750640153884888, 0.5191588401794434, 0.5066821040089958, 1791573420525732410, 
-0.0766991376876831, -0.2045975923538208, 0.4895620394236705, 1791573420555728957, 
-0.030738472938537598, -0.1485617756843567, 0.4675154088640791, 1791573420585770680, 
-0.5646942853927612, 0.3920608162879944, 0.49511810680601986, 1791573420615785411, 
-0.53436279296875, -0.13237303495407104, 0.49056152909876927, 1791573420646391291, 
0.24473947286605835, 0.15675115585327148, 0.4767751037337281, 1791573420678183108, 
-0.06574326753616333, 0.34080350399017334, 0.5571983958123357, 1791573420705790186, 
0.06230229139328003, -0.27993470430374146, 0.5133623764704756, 1791573420735711013, 
0.14210832118988037, 0.047148942947387695, 0.49213537084460424, 1791573420765750451, 
-0.11574703454971313, 0.5096794366836548, 0.5049632290868555, 1791573420795760696, 
0.005449652671813965, -0.19445806741714478, 0.5116984614399742, 1791573420826001346, 
-0.22590690851211548, 0.17695122957229614, 0.5138310871477005, 1791573420855767299, 
-0.17535364627838135, 0.3478809595108032, 0.5023219720508301, 1791573420885948738, 
0.05419844388961792, -0.3963942527770996, 0.45272680730093096, 1791573420918440422, 
0.21256178617477417, 0.2152615189552307, 0.5252247796051209, 1791573420945798248, 
-0.11773836612701416, 0.3466683626174927, 0.5059592004430566, 1791573420975714248, 
0.15099990367889404, -0.146925687789917, 0.49844916815606727, 1791573421005783908, 
0.294166624546051, 0.3745131492614746, 0.504016874510672, 1791573421035759968, 
-0.243510901927948, 0.03937637805938721, 0.5165692681083079, 1791573421065766758, 
0.24196124076843262, -0.36097419261932373, 0.5156507871267134, 1791573421095762296, 
0.05597573518753052, 0.5297528505325317, 0.48481948422587545, 1791573421126506101, 
0.23586642742156982, 0.1605362892150879, 0.4547235147350671, 1791573421158404605, 
-0.2946891784667969, -0.004130721092224121, 0.5197092632279022, 1791573421195712622, 
-0.2827489972114563, 0.036608994007110596, 0.495260516013173, 1791573421225755354, 
0.04378938674926758, 0.06565731763839722, 0.5267588349373393, 1791573421255725740, 
0.0013991594314575195, 0.23023509979248047, 0.5070860259726998, 1791573421286642090, 
-0.08126592636108398, 0.22516316175460815, 0.48013184066800607, 1791573421317995954, 
0.10951918363571167, 0.03136688470840454, 0.5485672421672428, 1791573421345832495, 
-0.17507880926132202, 0.016934752464294434, 0.5107309452869553, 1791573421375692469, 
-0.2105657458305359, -0.017399370670318604, 0.5043521559175649, 1791573421405766099, 
-0.64405757188797, 0.10915106534957886, 0.4928350753952625, 1791573421435714022, 
0.4143519401550293, 0.05999195575714111, 0.48530291675685816, 1791573421465751662, 
-0.3839496970176697, 0.1604747772216797, 0.49906047544302923, 1791573421495757374, 
-0.17082726955413818, 0.03873330354690552, 0.5272142498812011, 1791573421526011040, 
-0.11955779790878296, -0.014887988567352295, 0.4937861430583769, 1791573421557987225, 
-0.03761756420135498, 0.35963666439056396, 0.5345608651528202, 1791573421585772012, 
-0.03187406063079834, 0.19431185722351074, 0.46911456587371203, 1791573421615705428, 
-0.019063889980316162, -0.035301804542541504, 0.5035018084160405, 1791573421645758737, 
0.10895901918411255, 0.21310913562774658, 0.5410103463793599, 1791573421675694587, 
-0.4262837767601013, 0.04987400770187378, 0.5274550157543437, 1791573421705710995, 
0.15532290935516357, -0.02476966381072998, 0.49642691797176663, 1791573421735805084, 
0.26950037479400635, 0.31903940439224243, 0.4888897631324127, 1791573421766011605, 
-0.1928827166557312, -0.16700983047485352, 0.4802506797893504, 1791573421798713879, 
-0.0922931432723999, 0.053389549255371094, 0.5556119424050094, 1791573421825786261, 
0.3438311219215393, 0.5284484028816223, 0.4987091082562459, 1791573421855698031, 
-0.3679264783859253, -0.3187945485115051, 0.499859973769504, 1791573421885722968, 
0.13743531703948975, -0.11301183700561523, 0.5098860030496069, 1791573421915707399, 
-0.11447358131408691, 0.940434455871582, 0.5145807936784667, 1791573421945745568, 
0.03453719615936279, -0.25765103101730347, 0.5040328441788376, 1791573421975816164, 
0.039624035358428955, -0.32669830322265625, 0.4910161995619398, 1791573422006270187, 
-0.1371530294418335, 0.1312428116798401, 0.45644580980178917, 1791573422037992129, 
0.02924412488937378, 0.7043226361274719, 0.5233913118790267, 1791573422065817198, 
-0.28875184059143066, -0.44408488273620605, 0.49885378580820283, 1791573422095703500, 
0.3318423628807068, 0.12563538551330566, 0.4870905973857329, 1791573422125698398, 
-0.23306751251220703, 0.6050814390182495, 0.5136443126837119, 1791573422155691703, 
0.11821794509887695, -0.2375783920288086, 0.5152977294523419, 1791573422185683265, 
-0.2552810311317444, 0.028483331203460693, 0.49736714518013403, 1791573422215683495, 
-0.0873224139213562, 0.29686564207077026, 0.498554824975968, 1791573422246784285, 
-0.11177259683609009, -0.2689056992530823, 0.5158760743968243, 1791573422278435690, 
-0.2957528829574585, 0.30237698554992676, 0.5849898076551272, 1791573422305782475, 
0.11103802919387817, 0.5283763408660889, 0.5078707342759982, 1791573422335687125, 
-0.2951643466949463, -0.3446153402328491, 0.4620104046272551, 1791573422365703282, 
0.3685131072998047, 0.11137378215789795, 0.4643898489527205, 1791573422395675157, 
-0.09469354152679443, 0.5540828704833984, 0.5042976612164776, 1791573422425667390, 
-0.009745895862579346, -0.16266095638275146, 0.5059084610684084, 1791573422455716685, 
-0.21425825357437134, 0.17133837938308716, 0.5076789834791209, 1791573422486021083, 
-0.004522979259490967, 0.2693558931350708, 0.4759039812099487, 1791573422518044016, 
-0.015793144702911377, -0.11399000883102417, 0.5427877555238274, 1791573422545772611, 
0.033956825733184814, 0.19753491878509521, 0.49909864902709933, 1791573422575653866, 
0.02409285306930542, 0.47665339708328247, 0.4985603911976254, 1791573422605656051, 
-0.3940679430961609, -0.18189430236816406, 0.4732963221386261, 1791573422635694208, 
0.6807159781455994, 0.037552714347839355, 0.5018887891390138, 1791573422665695840, 
-0.04237931966781616, 0.6338504552841187, 0.5264182010550232, 1791573422695726119, 
-0.12271666526794434, -0.37623435258865356, 0.489937331216623, 1791573422726055104, 
-0.01508110761642456, -0.07321816682815552, 0.4559379481965051, 1791573422758501316, 
-0.08387678861618042, 1.1353116035461426, 0.550227510916793, 1791573422785775391, 
-0.3899891972541809, -0.5483437776565552, 0.5098927038646229, 1791573422815657518, 
0.042417943477630615, -0.15128111839294434, 0.5085367131208395, 1791573422845668517, 
0.06626623868942261, 0.987145721912384, 0.500078972601773, 1791573422875671081, 
-0.4827384948730469, -0.6861142516136169, 0.5054185719618463, 1791573422905696971, 
0.12314355373382568, -0.12657123804092407, 0.5125629426935169, 1791573422935693862, 
0.020712971687316895, 1.0747722387313843, 0.49260067180671385, 1791573422966072041, 
-0.004375278949737549, -0.2936035394668579, 0.47428131752744673, 1791573422998373155, 
0.22153937816619873, -0.24292665719985962, 0.5621638627230771, 1791573423025664743, 
0.2630424499511719, 0.7405596375465393, 0.5069542270216667, 1791573423055658931, 
0.1773931384086609, -0.08377838134765625, 0.492758564863899, 1791573423085686069, 
0.14519089460372925, -0.02881336212158203, 0.4957243147572818, 1791573423115691478, 
0.04618197679519653, 0.3383897542953491, 0.5171131327890678, 1791573423145688094, 
-0.1578177809715271, -0.0649183988571167, 0.5128833035348361, 1791573423175701917, 
-0.13496708869934082, -0.09166562557220459, 0.5024447070706447, 1791573423206737154, 
0.20866960287094116, 0.4858154058456421, 0.49483318829747525, 1791573423237118288, 
0.22461152076721191, 0.33213937282562256, 0.5051186154537186, 1791573423265680777, 
0.0779961347579956, -0.21442919969558716, 0.4818544106996078, 1791573423295716607, 
-0.11168843507766724, 0.16543042659759521, 0.4936356216268525, 1791573423325672732, 
-0.16504138708114624, 0.33824700117111206, 0.4771542893911803, 1791573423355738166, 
-0.1471344232559204, 0.053926289081573486, 0.46934639737953826, 1791573423385948635, 
-0.13267308473587036, -0.15335613489151, 0.4933567704282039, 1791573423415743628, 
0.37176513671875, 0.5827035903930664, 0.5453383707500622, 1791573423445112753, 
-0.06785893440246582, 0.007839679718017578, 0.4941874127142497, 1791573423478359445, 
-0.17823946475982666, -0.20277070999145508, 0.577863071682994, 1791573423505717507, 
0.0662263035774231, 0.4690292477607727, 0.4823613942842308, 1791573423535669402, 
-0.23681378364562988, -0.6877592206001282, 0.4102430752855319, 1791573423558135738, 
0.027256011962890625, -0.15869653224945068, 0.5147031233789904, 1791573423595676669, 
0.29482710361480713, 0.6738426089286804, 0.5094201712282895, 1791573423625632766, 
-0.4569546580314636, 0.3436630368232727, 0.49733784594272273, 1791573423655698378, 
-0.08555465936660767, -0.7838722467422485, 0.490732990019272, 1791573423686145246, 
0.32781440019607544, 0.47719621658325195, 0.4709395983423378, 1791573423718566348, 
-0.2805368900299072, 0.7445377707481384, 0.5875028898612845, 1791573423745716146, 
-0.016424596309661865, -0.7249099612236023, 0.5318326451754101, 1791573423775881258, 
0.10033011436462402, 1.0215535163879395, 0.44915341133364695, 1791573423798301009, 
0.03552961349487305, -0.14165431261062622, 0.5083450463739857, 1791573423825699304, 
0.19217538833618164, -0.42206239700317383, 0.4937551738934398, 1791573423855340321, 
0.06541556119918823, 0.7611390352249146, 0.5017226149562954, 1791573423885635005, 
0.02208632230758667, 0.28760451078414917, 0.4902465569527697, 1791573423915668588, 
-0.2939864993095398, -0.5799689888954163, 0.49029786268190223, 1791573423945641346, 
0.12745290994644165, 0.2784503102302551, 0.49258406010720474, 1791573423975879680, 
-0.1242837905883789, 0.5782049894332886, 0.48440254584172043, 1791573424006440762, 
0.274802029132843, -0.23167413473129272, 0.4687368778758438, 1791573424038748119, 
-0.22809386253356934, 0.2054254412651062, 0.577706067304807, 1791573424065689278, 
-0.10525500774383545, 0.4951402544975281, 0.5182513178545959, 1791573424095613041, 
0.008557319641113281, -0.13590127229690552, 0.5119070590010311, 1791573424125646117, 
0.3421322703361511, 0.05406290292739868, 0.5189070104342891, 1791573424155860272, 
0.16386574506759644, 0.4821256995201111, 0.5381296900892787, 1791573424185958455, 
0.10825127363204956, -0.25021761655807495, 0.5294724924188116, 1791573424215656510, 
0.4344838261604309, 0.005261242389678955, 0.5000801026959254, 1791573424246133372, 
0.08329898118972778, 0.4378148913383484, 0.5033084581786978, 1791573424277115657, 
-0.20758908987045288, 0.12013936042785645, 0.552454767266482, 1791573424305111970, 
0.031120002269744873, -0.302762508392334, 0.5035138646023435, 1791573424335710046, 
-0.04078561067581177, 0.5807079672813416, 0.5219893495245909, 1791573424365646351, 
0.1660429835319519, 0.3696516752243042, 0.504432939138399, 1791573424395636831, 
-0.08124089241027832, -0.7565929889678955, 0.48085761478941924, 1791573424425604535, 
-0.03192251920700073, 0.6484575271606445, 0.4650258698342195, 1791573424455621054, 
-0.2201945185661316, 0.49107444286346436, 0.4599425681916577, 1791573424487158677, 
-0.17455005645751953, -0.8588736057281494, 0.4895051024868291, 1791573424518434254, 
0.2025148868560791, 0.453569233417511, 0.5724905275095801, 1791573424545681073, 
0.09856969118118286, 1.1424293518066406, 0.513640514240412, 1791573424575610435, 
0.5495203733444214, -0.640178918838501, 0.5085794020852782, 1791573424605658506, 
0.020883798599243164, -0.2585030794143677, 0.5149951436074738, 1791573424635632648, 
-0.02292180061340332, 1.0350687503814697, 0.5141589120611768, 1791573424665588147, 
-0.0006538033485412598, 0.12219536304473877, 0.4966366846248783, 1791573424695699171, 
-0.2734389901161194, -0.5644398927688599, 0.4832648777502957, 1791573424726240030, 
-0.3340204954147339, -0.2885439991950989, 0.4804180981366207, 1791573424758144280, 
0.10743141174316406, 0.5064033269882202, 0.5854354879555707, 1791573424785743193, 
0.02902930974960327, 0.22342288494110107, 0.5211687599323529, 1791573424815593751, 
0.13143765926361084, -0.13291281461715698, 0.49249690842072563, 1791573424845556882, 
0.05156677961349487, 0.24848955869674683, 0.5061580399544531, 1791573424875567157, 
0.1279948353767395, 0.30942589044570923, 0.501253149666956, 1791573424905595335, 
-0.13718712329864502, -0.36883455514907837, 0.4891262186948613, 1791573424935611098, 
-0.44408923387527466, 0.08300536870956421, 0.4682215285694565, 1791573424966163057, 
-0.017425954341888428, 0.6331515908241272, 0.43851755344936816, 1791573424998584819, 
0.18523657321929932, -0.11945605278015137, 0.5644707292606906, 1791573425025669201, 
-0.07627469301223755, -0.1242821216583252, 0.5058275752415413, 1791573425055591266, 
0.12550556659698486, 0.732312798500061, 0.48063359834695296, 1791573425085559891, 
0.024444878101348877, 0.24676519632339478, 0.476405949209375, 1791573425115780851, 
-0.20555061101913452, -0.4178627133369446, 0.5163718524058085, 1791573425145561620, 
0.42044180631637573, 0.2847800850868225, 0.5293040928469334, 1791573425175651781, 
-0.34532850980758667, 0.7184370756149292, 0.5048427737873159, 1791573425206386423, 
-0.12296640872955322, -0.694904625415802, 0.48106356463213545, 1791573425238481312, 
0.039714157581329346, 0.14553439617156982, 0.567963448063738, 1791573425265600452, 
0.16842114925384521, 1.0833349227905273, 0.5057205383728371, 1791573425295552518, 
0.08797270059585571, -0.21383631229400635, 0.4770830193047963, 1791573425325551683, 
-0.014147341251373291, -0.25261741876602173, 0.47211122254888277, 1791573425355571471, 
0.5237785577774048, 0.5555508136749268, 0.49689531816316407, 1791573425385602077, 
-0.3407391309738159, 0.31050509214401245, 0.5046573029869185, 1791573425415616679, 
0.05028015375137329, -0.4291645884513855, 0.4646840872255681, 1791573425446659968, 
-0.08518069982528687, 0.20735406875610352, 0.4778216901913473, 1791573425478224975, 
-0.2443833351135254, 0.7233429551124573, 0.5387235596307348, 1791573425505618640, 
-0.0773320198059082, -0.16871953010559082, 0.5106080191265244, 1791573425534552295, 
0.11663347482681274, -0.11492490768432617, 0.4911678543133367, 1791573425565575499, 
0.20661014318466187, 0.5530397891998291, 0.5202911249026775, 1791573425595592466, 
-0.085171639919281, 0.04455381631851196, 0.5251820177337937, 1791573425625614592, 
-0.3260000944137573, -0.3622934818267822, 0.5059142258916347, 1791573425655596397, 
0.23066478967666626, 0.2959943413734436, 0.47022439840995917, 1791573425686236429, 
-0.4916149973869324, 0.3224030137062073, 0.4422888993063399, 1791573425718754237, 
-0.2528337836265564, -0.34781748056411743, 0.5795790437441735, 1791573425744588859, 
-0.07250773906707764, 0.1334017515182495, 0.5082997390837742, 1791573425775563110, 
0.3274943232536316, 0.9442353844642639, 0.501927678159237, 1791573425805589298, 
-0.10360032320022583, -0.0967908501625061, 0.48266156435691576, 1791573425835586901, 
0.0578119158744812, -0.5740677714347839, 0.4877660139745222, 1791573425865572762, 
0.1886427402496338, 0.8727148175239563, 0.5048579086833589, 1791573425895606536, 
-0.016412556171417236, 0.5895971059799194, 0.4993734406963669, 1791573425926277828, 
-0.10803031921386719, -0.5574156045913696, 0.45278663436926064, 1791573425958689740, 
-0.10680288076400757, -0.10006368160247803, 0.5663722867663589, 1791573425985629608, 
0.2684200406074524, 0.9124500155448914, 0.5311336489376934, 1791573426015581075, 
-0.20225775241851807, 0.033976852893829346, 0.5176652253842021, 1791573426045680753, 
-0.10271817445755005, -0.41943609714508057, 0.508771314168318, 1791573426075606693, 
-0.17514199018478394, -0.3411175608634949, 0.5138915101534023, 1791573426105763244, 
-0.005511820316314697, 0.9191696643829346, 0.519988209522406, 1791573426135755887, 
0.012719511985778809, 0.44864988327026367, 0.47927233315218337, 1791573426166544544, 
-0.07045525312423706, -0.6391386389732361, 0.4539580088226661, 1791573426198425210, 
0.13325917720794678, 0.12986791133880615, 0.5462527455570282, 1791573426225633632, 
-0.1769586205482483, 0.8827688694000244, 0.5173822418234428, 1791573426255542229, 
0.1659921407699585, -0.1445401906967163, 0.5397740586135106, 1791573426284575178, 
-0.3634088635444641, -0.274783730506897, 0.4785504836865428, 1791573426315518945, 
0.38781875371932983, 0.5586817264556885, 0.4823358074079532, 1791573426345524732, 
-0.12353283166885376, 0.5229113698005676, 0.4916437422417502, 1791573426375567908, 
-0.07905739545822144, -0.527808427810669, 0.4996232331558028, 1791573426405759102, 
-0.06211024522781372, 0.20988953113555908, 0.46746757902478725, 1791573426438475934, 
0.08968460559844971, 0.8861595988273621, 0.5565440961167701, 1791573426465573299, 
0.1373271942138672, -0.16404515504837036, 0.5214525298778757, 1791573426495551703, 
-0.4720497131347656, -0.2742686867713928, 0.5174896484560493, 1791573426525541921, 
0.001886904239654541, 0.4909120202064514, 0.502741582966642, 1791573426555512185, 
-0.3037381172180176, 0.39184892177581787, 0.5092815212503369, 1791573426585541914, 
-0.19144070148468018, -0.44022005796432495, 0.5145751924340712, 1791573426615552735, 
0.11987823247909546, 0.059143006801605225, 0.48245389546897843, 1791573426646661343, 
0.10713547468185425, 0.7230886816978455, 0.46205907433968174, 1791573426678279840, 
-0.09342032670974731, -0.01773226261138916, 0.5595035342889286, 1791573426705634106, 
-0.35334664583206177, -0.6500773429870605, 0.514008350971981, 1791573426735510755, 
0.028410375118255615, 0.8984580636024475, 0.421687693891112, 1791573426758257779, 
0.27137917280197144, 0.6195028424263, 0.5046794671691399, 1791573426795515475, 
0.09150773286819458, -0.257274329662323, 0.5084651537338643, 1791573426825548633, 
0.39636653661727905, -0.3521619439125061, 0.5314420007826524, 1791573426855555746, 
-0.13459527492523193, 0.7596008777618408, 0.5096911402742582, 1791573426886288785, 
0.20487940311431885, 0.5040519833564758, 0.44459259369992604, 1791573426918704887, 
-0.6392009258270264, -0.8939831852912903, 0.5355156900796125, 1791573426945636265, 
0.542361319065094, 0.22668159008026123, 0.5272859125137774, 1791573426975497550, 
0.19559001922607422, 0.7419772744178772, 0.5459901129553699, 1791573427005501943, 
-0.10789346694946289, 0.07516723871231079, 0.52995941407327, 1791573427035516382, 
-0.06183922290802002, -0.5266737937927246, 0.5056818989926023, 1791573427065587693, 
0.0991973876953125, 0.19173437356948853, 0.4872134057076647, 1791573427095775135, 
0.3348347544670105, 0.8976131081581116, 0.4759479822818643, 1791573427126380405, 
-0.05532479286193848, -0.2762877941131592, 0.4516576262379227, 1791573427158291312, 
0.32171642780303955, -0.34660422801971436, 0.523375095733266, 1791573427195499946, 
-0.41470205783843994, -0.23186397552490234, 0.5088159052723449, 1791573427225503139, 
0.1695508360862732, 0.7520599365234375, 0.5058998572538906, 1791573427255555804, 
-0.08355200290679932, 0.15708905458450317, 0.4949773223665824, 1791573427286674969, 
-0.22711849212646484, -0.4797825217247009, 0.4802833813972565, 1791573427318300912, 
-0.02768009901046753, 0.1451827883720398, 0.5490651884095833, 1791573427345565473, 
-0.016720116138458252, 0.7364955544471741, 0.5110142317305627, 1791573427375508856, 
0.041595399379730225, 0.23580729961395264, 0.5216858002980161, 1791573427405495235, 
-0.2949405908584595, -0.7425001859664917, 0.5476028840875484, 1791573427435548863, 
-0.20611035823822021, -0.2812999486923218, 0.5066316100137165, 1791573427465824212, 
-0.0474323034286499, 0.0003883838653564453, 0.504923839248487, 1791573427495623862, 
-0.2773294448852539, 0.7693995237350464, 0.4913095087742313, 1791573427526330353, 
-0.058315277099609375, -0.19049960374832153, 0.4684251998186072, 1791573427559003322, 
-0.4176762104034424, -0.1317349076271057, 0.550187229407921, 1791573427585559630, 
0.18561768531799316, 0.3206196427345276, 0.483844409797439, 1791573427615492770, 
-0.34647607803344727, -0.523716390132904, 0.4295027440280616, 1791573427638415059, 
0.0013566017150878906, -0.29955631494522095, 0.5577513910222331, 1791573427665577963, 
0.13692408800125122, 0.5468724370002747, 0.5332293720451404, 1791573427695519082, 
0.16419363021850586, 0.8584170341491699, 0.49747579560522937, 1791573427725507342, 
0.05524355173110962, -0.6401528120040894, 0.4891343036594842, 1791573427755510128, 
-0.15408635139465332, -0.20336920022964478, 0.49382663331449655, 1791573427785463164, 
0.250667929649353, 0.8889232873916626, 0.49892475647040263, 1791573427815504760, 
-0.04874140024185181, 0.3251835107803345, 0.49537519636418903, 1791573427846705008, 
-0.5161683559417725, -0.4217946529388428, 0.463636997809382, 1791573427878907414, 
0.7309224009513855, 0.11521786451339722, 0.5858611136836932, 1791573427905564322, 
-0.2564029097557068, 0.8916855454444885, 0.5079639630886185, 1791573427935522909, 
-0.02575927972793579, -0.13263940811157227, 0.48384245191204256, 1791573427965482554, 
-0.2144814133644104, -0.41795772314071655, 0.48644185366921766, 1791573427995507813, 
0.10422438383102417, 0.2954503893852234, 0.5133032135027568, 1791573428025465513, 
-0.15741455554962158, 0.6877235770225525, 0.5061716538102462, 1791573428055505544, 
0.044226646423339844, -0.1761912703514099, 0.4627714965911503, 1791573428086327947, 
0.03607600927352905, -0.4331715703010559, 0.46446638798577206, 1791573428118356062, 
0.115020751953125, 0.4127255082130432, 0.5376524739580464, 1791573428145548176, 
0.10219371318817139, 0.620345413684845, 0.51992224494542, 1791573428175488690, 
-0.2782641053199768, -0.09734076261520386, 0.5084133853195325, 1791573428205458160, 
-0.5801717638969421, -0.4303781986236572, 0.5065041720763298, 1791573428235469666, 
0.07178002595901489, 0.3391079306602478, 0.5157800810388544, 1791573428265466612, 
0.2774760127067566, 0.8778106570243835, 0.5052229287248181, 1791573428295517798, 
-0.09749919176101685, -0.1883642077445984, 0.4750976185377425, 1791573428326811793, 
-0.16339582204818726, -0.5678410530090332, 0.4752951096854635, 1791573428358523747, 
-0.12781572341918945, -0.2099083662033081, 0.5335106714742813, 1791573428395514431, 
0.22503405809402466, 0.3625355362892151, 0.4900347914481618, 1791573428425454134, 
-0.12346863746643066, 0.3300390839576721, 0.5155882662671581, 1791573428455504190, 
-0.4601171612739563, -0.24458259344100952, 0.49214697220811054, 1791573428486379592, 
0.289739191532135, -0.30764704942703247, 0.456939920000497, 1791573428519199775, 
0.2678629755973816, 0.6496539115905762, 0.5445423251071626, 1791573428545508961, 
0.2525312900543213, 0.6472936868667603, 0.506140042392473, 1791573428575470953, 
0.2876233458518982, -0.3633628487586975, 0.5147516097715725, 1791573428605480003, 
-0.14296352863311768, -0.49182116985321045, 0.4881478484691709, 1791573428635469697, 
0.3810548782348633, 0.39111053943634033, 0.48826396243459846, 1791573428665748973, 
-0.23653674125671387, 0.9696033596992493, 0.5112180210035289, 1791573428695510430, 
-0.028097033500671387, -0.4279709458351135, 0.517020545079674, 1791573428726710305, 
-0.18799328804016113, -0.49708276987075806, 0.4951494300531027, 1791573428758403007, 
0.5772677659988403, 0.36896252632141113, 0.5607823651419346, 1791573428785608886, 
-0.019388914108276367, 0.5932683944702148, 0.4951649978477018, 1791573428815545184, 
0.4543060064315796, 0.5953765511512756, 0.506875748555163, 1791573428844681251, 
-0.3244328498840332, -0.3796987533569336, 0.49241763510529984, 1791573428875631243, 
-0.24185317754745483, -0.49304860830307007, 0.4992261167423692, 1791573428905651378, 
-0.4068503975868225, 0.4569673538208008, 0.4877606411453165, 1791573428935562267, 
-0.20730870962142944, 0.577631950378418, 0.4655122989819714, 1791573428967148453, 
0.005616307258605957, -0.1528269648551941, 0.4745154876561778, 1791573428998889173, 
-0.048079490661621094, -0.2544708251953125, 0.594583008529247, 1791573429025508884, 
0.44003772735595703, 0.22015541791915894, 0.5170634036452487, 1791573429055452734, 
-0.19924205541610718, 0.6612862348556519, 0.48857364184992547, 1791573429085435150, 
0.02006077766418457, -0.0582394003868103, 0.4969048091312123, 1791573429115474921, 
-0.4333610534667969, -0.40191495418548584, 0.506282996632841, 1791573429145469445, 
0.27164244651794434, 0.19614756107330322, 0.4959959850184661, 1791573429175523372, 
0.045184195041656494, 0.6043248772621155, 0.47412417042127925, 1791573429206414920, 
0.12868160009384155, -0.08776849508285522, 0.48131750024329706, 1791573429238411239, 
-0.02284938097000122, -0.26665163040161133, 0.5846349018034381, 1791573429265502372, 
-0.06086915731430054, 0.3584807515144348, 0.5098193832134456, 1791573429295471425, 
0.9106943607330322, 0.49905532598495483, 0.49455428293493525, 1791573429325462882, 
-0.7751768827438354, -0.014177203178405762, 0.4949276945261126, 1791573429355486718, 
0.4928942918777466, -0.42501676082611084, 0.47876921972583975, 1791573429385460745, 
-0.2580708861351013, 0.18815642595291138, 0.47084203339494224, 1791573429415509729, 
0.47094106674194336, 0.6639809012413025, 0.4837024643242609, 1791573429446417684, 
-0.2641458511352539, 0.2670704126358032, 0.4921079313640593, 1791573429478099083, 
0.12819170951843262, -0.4487260580062866, 0.5715072783209749, 1791573429505494444, 
-0.32887399196624756, -0.16102272272109985, 0.5110194713136149, 1791573429535457611, 
-0.24854421615600586, 0.3665590286254883, 0.4352493743730423, 1791573429558494666, 
0.1300169825553894, 0.4823989272117615, 0.5459765844430151, 1791573429595492578, 
-0.49700474739074707, -0.028688549995422363, 0.5047437710086135, 1791573429625439964, 
-0.06635648012161255, -0.5886567831039429, 0.5020218313923475, 1791573429655493199, 
-0.370400607585907, 0.7054641246795654, 0.49876540410442466, 1791573429686414904, 
0.6322442889213562, 0.4850778579711914, 0.47822548329832437, 1791573429718438625, 
-0.2284749150276184, -0.1849624514579773, 0.5447905750135205, 1791573429745539379, 
-0.00012135505676269531, -0.37839460372924805, 0.5214244471610959, 1791573429775459461, 
-0.1488504409790039, 0.4705626368522644, 0.5160084647558844, 1791573429805446159, 
0.2516540288925171, 0.5074331164360046, 0.5034931682124304, 1791573429835470538, 
-0.4046536087989807, 0.14082789421081543, 0.47200949963395267, 1791573429865421504, 
0.17263716459274292, -0.5249543786048889, 0.479118700120945, 1791573429895814478, 
0.06829267740249634, 0.06465554237365723, 0.5163356398716272, 1791573429926977003, 
-0.14188313484191895, 1.3062143325805664, 0.5052537675889502, 1791573429958408394, 
1.0243536233901978, -0.13182777166366577, 0.5317877214666269, 1791573429985775290, 
-0.1411571502685547, -0.4655974507331848, 0.4973230195518835, 1791573430015466103, 
0.4762699604034424, 0.3194926381111145, 0.4326583088545397, 1791573430038904262, 
-0.3691098690032959, 0.33682745695114136, 0.5668774647469593, 1791573430065443808, 
-0.25603026151657104, -0.26235222816467285, 0.4886673255181296, 1791573430095453853, 
-0.001110851764678955, -0.27192217111587524, 0.48335247492243144, 1791573430125409841, 
0.0881432294845581, 0.48581379652023315, 0.49711757529803074, 1791573430155490965, 
0.07798737287521362, 0.6811208128929138, 0.5084580398729344, 1791573430185485701, 
0.1789911985397339, 0.7548654079437256, 0.511859196480061, 1791573430214786153, 
-0.2199798822402954, -0.015296220779418945, 0.4484482288150574, 1791573430246835379, 
-0.5294309258460999, -0.6546274423599243, 0.46291325962121466, 1791573430278778947, 
-0.0772809386253357, -0.20849472284317017, 0.5311903178510013, 1791573430305649287, 
-0.06284701824188232, 0.7768859267234802, 0.5002784739110382, 1791573430335486773, 
-0.23473697900772095, -0.23374569416046143, 0.4371973338597835, 1791573430358693443, 
-0.10751724243164062, -0.18602317571640015, 0.5562080846046414, 1791573430395458684, 
-0.0017123222351074219, -0.07910239696502686, 0.5450280318943443, 1791573430425435288, 
-0.1185045838356018, 0.5391468405723572, 0.5376957496226881, 1791573430455486196, 
0.38271480798721313, 0.22382962703704834, 0.48628461973798326, 1791573430486472889, 
-0.5354263782501221, -0.05305713415145874, 0.4412155573159136, 1791573430519450629, 
0.10732871294021606, -0.34694355726242065, 0.5897573508970663, 1791573430545465425, 
-0.1806316375732422, 0.3208234906196594, 0.5080308060529658, 1791573430575433031, 
0.19142001867294312, 0.5499639511108398, 0.48836378063920144, 1791573430605434672, 
-0.4601448178291321, 0.3830994963645935, 0.4782410965284248, 1791573430635469096, 
-0.223374605178833, -0.38125622272491455, 0.4897446299081698, 1791573430665754399, 
-0.23016196489334106, -0.16033631563186646, 0.49076496088252153, 1791573430695541787, 
0.10497266054153442, 0.590869128704071, 0.48756339464371723, 1791573430726499245, 
0.18785333633422852, 0.4833078980445862, 0.465065662037565, 1791573430759359965, 
0.23834443092346191, 0.4904268980026245, 0.5676174531085196, 1791573430795441997, 
-0.2866305112838745, 0.055187106132507324, 0.4956144878768634, 1791573430825393613, 
-0.25263363122940063, -0.5816330909729004, 0.5088820901188035, 1791573430855460681, 
-0.0802919864654541, 0.012344300746917725, 0.5054184499432157, 1791573430886969085, 
0.0932665467262268, 0.8571207523345947, 0.502586871133675, 1791573430918651661, 
-0.044753074645996094, 0.2168998122215271, 0.5710965870362893, 1791573430945431722, 
-0.6859551072120667, -0.54264235496521, 0.5066786262113677, 1791573430975432086, 
0.4713324308395386, -0.189714252948761, 0.5107244076587861, 1791573431005399407, 
-0.2148917317390442, 0.6684662103652954, 0.5149174036829747, 1791573431035439320, 
0.44984036684036255, 0.531754195690155, 0.5142901660080956, 1791573431065458293, 
-0.49739837646484375, -0.09245282411575317, 0.5100357918063597, 1791573431095536161, 
-0.10625410079956055, -0.2964906692504883, 0.4860144810013422, 1791573431126558590, 
-0.41331201791763306, 0.05355238914489746, 0.4641116578511695, 1791573431158562579, 
0.29728156328201294, -0.14476823806762695, 0.5667015857514649, 1791573431195483981, 
-0.14423543214797974, 0.5514900088310242, 0.5196084650555175, 1791573431225420024, 
0.7373356223106384, 0.39338165521621704, 0.5075228400703383, 1791573431255496734, 
-0.6596633791923523, -0.11219441890716553, 0.4922000702556337, 1791573431286543887, 
0.09149926900863647, -0.27191025018692017, 0.46928808799411514, 1791573431318769496, 
-0.4074021577835083, -0.012600183486938477, 0.5739497907235993, 1791573431345438268, 
0.6049718260765076, 0.23378759622573853, 0.5091329378066597, 1791573431375465875, 
-0.13383305072784424, 0.06354033946990967, 0.4466684699581429, 1791573431398123323, 
0.19785195589065552, -0.34318023920059204, 0.5618602500598079, 1791573431425441545, 
-0.47181665897369385, 0.21246695518493652, 0.5076047188030154, 1791573431455505138, 
-0.04885053634643555, 0.720302164554596, 0.48148927735058483, 1791573431485462023, 
-0.27842414379119873, 0.12389218807220459, 0.4764959222235255, 1791573431515515745, 
-0.5102079510688782, -0.5528191924095154, 0.5075799571002367, 1791573431545515859, 
-0.7623350620269775, -0.43213534355163574, 0.5335762680062996, 1791573431575841549, 
0.04603654146194458, -0.26184213161468506, 0.5497364502039849, 1791573431606559017, 
-0.20568221807479858, 0.3809328079223633, 0.49283861912342863, 1791573431637100778, 
-0.10902798175811768, 0.382540762424469, 0.4882170359648636, 1791573431665606726, 
-0.13591480255126953, 0.32646024227142334, 0.48944881031270315, 1791573431695579956, 
-0.48330241441726685, -0.36529403924942017, 0.5157590113562469, 1791573431725470002, 
0.34421807527542114, -0.20272356271743774, 0.49989704327072076, 1791573431755473827, 
-0.25449198484420776, 0.28023070096969604, 0.52854196746535, 1791573431785454884, 
0.4518897533416748, 0.8087195158004761, 0.5329497253387873, 1791573431815532734, 
-0.6054273843765259, -0.1341065764427185, 0.48915441613689437, 1791573431846990139, 
0.12964385747909546, -0.4813673496246338, 0.47246167887033513, 1791573431878800369, 
-0.2966189980506897, -0.05145561695098877, 0.5548442102174465, 1791573431905513173, 
0.4784046411514282, 0.6567166447639465, 0.4990980812703856, 1791573431935484010, 
-0.6510935425758362, -0.26690393686294556, 0.41569550241810127, 1791573431958572777, 
0.44621872901916504, -0.2280781865119934, 0.5616837557526871, 1791573431985484359, 
-0.17789226770401, 0.5928664803504944, 0.4950192970418967, 1791573432015529701, 
-0.007882654666900635, 0.5051018595695496, 0.5263696188971003, 1791573432045429521, 
-0.0734063982963562, 0.12223446369171143, 0.5102133304154565, 1791573432075466056, 
-0.6292769908905029, -0.1398048996925354, 0.5181960003243167, 1791573432105454984, 
-0.04479128122329712, 0.015509068965911865, 0.48706856405348486, 1791573432135490869, 
0.043668925762176514, 0.0855417251586914, 0.4609311301341749, 1791573432166991070, 
0.041181325912475586, 0.2535243630409241, 0.4700359296594422, 1791573432198819572, 
-0.05955630540847778, 0.4015018939971924, 0.585739585021635, 1791573432225534188, 
-0.08766323328018188, -0.09086364507675171, 0.5071116931608628, 1791573432255503327, 
-0.5062137842178345, -0.20695996284484863, 0.48718501226151373, 1791573432285631742, 
-0.04838371276855469, 0.2646501660346985, 0.5055991653295882, 1791573432315497339, 
-0.15066057443618774, 0.734358012676239, 0.5042077433394732, 1791573432345445616, 
0.15431326627731323, 0.29552656412124634, 0.5029007364200816, 1791573432375527330, 
0.03859478235244751, -0.5590932369232178, 0.4915498914373824, 1791573432406558664, 
-0.6852663159370422, -0.016754865646362305, 0.4852247194994771, 1791573432438894333, 
0.008146345615386963, 0.38111037015914917, 0.5752732880152768, 1791573432465576824, 
0.10943436622619629, 0.7363585829734802, 0.49633623004383126, 1791573432495508206, 
-0.2625126838684082, 0.13087373971939087, 0.5070603992925039, 1791573432525452545, 
-0.26657921075820923, -0.33580273389816284, 0.49982311597751655, 1791573432555510040, 
-0.08202803134918213, -0.392076313495636, 0.5098950526750778, 1791573432585495632, 
-0.4286329746246338, 0.45525872707366943, 0.490549980582086, 1791573432615590568, 
-0.2731708884239197, 0.6318881511688232, 0.49330477392387206, 1791573432646587738, 
-0.3435415029525757, 0.17249327898025513, 0.47821301362362384, 1791573432679182179, 
-0.04926246404647827, -0.28824055194854736, 0.5815560290479245, 1791573432705500070, 
-0.13207370042800903, 0.09725916385650635, 0.5127123403862963, 1791573432735499001, 
-0.16743075847625732, 0.386229932308197, 0.41704001944758873, 1791573432758830111, 
0.010337650775909424, 0.3511875867843628, 0.5535774799432467, 1791573432795507695, 
-0.10040539503097534, -0.006309211254119873, 0.5520137900539034, 1791573432825507120, 
-0.4450932741165161, 0.22390973567962646, 0.531798521880558, 1791573432855605791, 
0.17757517099380493, 0.12775301933288574, 0.49652243162221865, 1791573432886953713, 
-0.2157239317893982, -0.24320542812347412, 0.471778281975635, 1791573432918640404, 
0.6229611039161682, -0.645404577255249, 0.5574678747453818, 1791573432945800062, 
0.5191976428031921, 0.6389217972755432, 0.5012853301694111, 1791573432975590924, 
0.028728127479553223, 0.4454432725906372, 0.48614890347216094, 1791573433005593751, 
-0.09810960292816162, 0.17177152633666992, 0.5302026431274, 1791573433035528772, 
0.01787620782852173, -0.2518683075904846, 0.5162192943317961, 1791573433065581697, 
-0.5545748472213745, -0.33556240797042847, 0.5194535362658299, 1791573433095568857, 
0.5878238081932068, 0.24908697605133057, 0.5071093730285554, 1791573433126106391, 
-0.1828141212463379, 0.87900310754776, 0.4489945106520558, 1791573433158665679, 
0.8154723048210144, 0.37581920623779297, 0.5358139223153228, 1791573433195503699, 
-0.5323083996772766, 0.4671204686164856, 0.4738584717953343, 1791573433225469297, 
-0.48394185304641724, 0.13816648721694946, 0.48397168674941826, 1791573433255546062, 
-0.6590162515640259, -0.32672202587127686, 0.4871541026116327, 1791573433286670499, 
0.3320956826210022, 0.0080108642578125, 0.5078237094625572, 1791573433319044955, 
-0.24757951498031616, 0.5392072796821594, 0.5955179859610017, 1791573433345546267, 
0.2772960066795349, 0.10138779878616333, 0.47939670303271076, 1791573433375486178, 
-0.21776694059371948, 0.17314118146896362, 0.47095905926723025, 1791573433405482191, 
0.5912748575210571, -0.05119597911834717, 0.48405105426332806, 1791573433435497999, 
-0.7592249512672424, -0.025639712810516357, 0.4931510496262138, 1791573433465504801, 
0.05371654033660889, 0.06599926948547363, 0.4685931271881682, 1791573433495659922, 
0.0001233220100402832, 0.3579813241958618, 0.4867399362327019, 1791573433526648287, 
0.059603333473205566, 0.3289003372192383, 0.4859962585039126, 1791573433558926961, 
0.23409003019332886, 0.47589248418807983, 0.5605131449666851, 1791573433595537531, 
-0.4088982939720154, 0.3074125647544861, 0.529644287499735, 1791573433625478075, 
-0.1278037428855896, -0.3323342800140381, 0.5126499961975554, 1791573433655545052, 
-0.055583655834198, -0.20859622955322266, 0.5112715750698346, 1791573433686679055, 
-0.04440265893936157, 0.39689427614212036, 0.4872191022058263, 1791573433718820868, 
-0.15546637773513794, 0.3522353172302246, 0.5409736106223232, 1791573433745585129, 
-0.06485217809677124, 0.24429136514663696, 0.5080437398995311, 1791573433775496477, 
-0.33851808309555054, 0.052791476249694824, 0.5222585447895512, 1791573433805526166, 
0.1739698052406311, -0.13352453708648682, 0.5069915410098591, 1791573433835504485, 
-0.32951653003692627, -0.05831712484359741, 0.5037074369045538, 1791573433865512936, 
-0.7350847721099854, 0.2443845272064209, 0.4920486452805633, 1791573433895470343, 
0.15608328580856323, 0.3621028661727905, 0.47171969587596757, 1791573433926743408, 
-0.10300946235656738, 0.5212908387184143, 0.4934095011961902, 1791573433958792096, 
-0.1690869927406311, -0.22276628017425537, 0.579003928284504, 1791573433985540205, 
-0.0008906126022338867, -0.4255010485649109, 0.5308177245955766, 1791573434015526408, 
0.052134931087493896, 0.16876709461212158, 0.5207671004747505, 1791573434045502967, 
0.4066842794418335, 0.6118910908699036, 0.48519870628876394, 1791573434075517324, 
-0.5455787777900696, 0.44570308923721313, 0.4874962176007329, 1791573434105493552, 
0.08670800924301147, 0.08523136377334595, 0.5234974886741742, 1791573434135581023, 
-0.16425639390945435, -0.3235589265823364, 0.49416838674300156, 1791573434166707383, 
0.5978025197982788, -0.0015000104904174805, 0.47061552445863847, 1791573434198972199, 
0.3403487801551819, 0.50062096118927, 0.5320899427573572, 1791573434225527683, 
-0.31870871782302856, 0.3180193305015564, 0.509061678907391, 1791573434255819288, 
0.2124481201171875, 0.3983277678489685, 0.5387190425909834, 1791573434285697553, 
-0.5126557350158691, 0.5172829031944275, 0.5053188047833365, 1791573434315636810, 
-0.22112256288528442, 0.16782140731811523, 0.46928914006627376, 1791573434345694361, 
-0.10390150547027588, -0.14411133527755737, 0.5034066884467243, 1791573434375654279, 
-0.015999317169189453, -0.29383885860443115, 0.5155543506758915, 1791573434406107040, 
-0.04586505889892578, 0.48276859521865845, 0.4765198038422642, 1791573434438680080, 
0.3891037106513977, 0.264035701751709, 0.569659749790031, 1791573434465626918, 
0.043273091316223145, 0.2852081060409546, 0.4907342332046905, 1791573434495490296, 
0.245134174823761, -0.10799604654312134, 0.5005959770001889, 1791573434525545850, 
0.2842521071434021, 0.008445978164672852, 0.5216497862809902, 1791573434555559244, 
-0.24100816249847412, -0.28400206565856934, 0.5176187832627154, 1791573434585758323, 
0.020764052867889404, 0.41120898723602295, 0.5239068356099975, 1791573434615595454, 
0.37232184410095215, 0.23016399145126343, 0.49302918634443155, 1791573434646852828, 
-0.3670399785041809, 0.590603232383728, 0.45787529460488247, 1791573434678565133, 
0.4192327857017517, 0.2645000219345093, 0.5300093213538988, 1791573434705476568, 
-0.7571882009506226, -0.39309847354888916, 0.5016178785932655, 1791573434735461134, 
0.2674112319946289, 0.3667822480201721, 0.4571661348371429, 1791573434758247486, 
-0.2522239089012146, 0.6817784309387207, 0.566857821760891, 1791573434785537580, 
0.32722002267837524, 0.05386847257614136, 0.5098832108599386, 1791573434815492514, 
-0.09705811738967896, 0.15918570756912231, 0.49717583292125783, 1791573434845492704, 
-0.2135029435157776, -0.22172200679779053, 0.5142134233234142, 1791573434875522143, 
-0.16593974828720093, 0.1203305721282959, 0.5277338938167672, 1791573434905478983, 
0.12710857391357422, 0.12300354242324829, 0.5057214599420957, 1791573434935720810, 
-0.43069690465927124, 0.4254453778266907, 0.46503429021920356, 1791573434967010126, 
-0.1768283247947693, 0.2263466715812683, 0.48611562097302596, 1791573434998318746, 
-0.09175944328308105, -0.011196494102478027, 0.5471764671936853, 1791573435025491009, 
0.16230332851409912, -0.15324777364730835, 0.4815239365325211, 1791573435055482631, 
-0.18589746952056885, -0.11474668979644775, 0.48098794650340826, 1791573435085446643, 
-0.10077643394470215, 0.2992594242095947, 0.4670749762265196, 1791573435115467324, 
-0.15159493684768677, 0.5746588706970215, 0.4988375823202717, 1791573435145547111, 
0.4738222360610962, -0.03975570201873779, 0.5334045205031607, 1791573435175532720, 
-0.1585986614227295, -0.02038949728012085, 0.5008143222632226, 1791573435206740897, 
-0.17150795459747314, -0.14413070678710938, 0.4799382910660051, 1791573435238302626, 
0.0034616589546203613, -0.2509787678718567, 0.5548062670188064, 1791573435265483205, 
0.08624023199081421, 0.3480885624885559, 0.49765403617775206, 1791573435295507510, 
0.12973260879516602, 0.7591144442558289, 0.5216770729782407, 1791573435325440910, 
-0.3133546710014343, 0.22387570142745972, 0.5101298240652066, 1791573435355472182, 
0.30231332778930664, 0.3516963720321655, 0.5052716084540878, 1791573435385568658, 
-0.45658719539642334, -0.43427348136901855, 0.4918564828638679, 1791573435415582406, 
-0.49743741750717163, -0.2519500255584717, 0.47714890904702734, 1791573435446925426, 
-0.22166603803634644, 0.3454335927963257, 0.4964549736308013, 1791573435478272081, 
-0.15698152780532837, 0.7438465356826782, 0.5627719720285335, 1791573435505586819, 
0.07218211889266968, 0.12428396940231323, 0.5018309584923042, 1791573435535445905, 
-0.4476739764213562, 0.28801727294921875, 0.5115918181980431, 1791573435565595964, 
0.21927523612976074, -0.1500002145767212, 0.5112096633537918, 1791573435595566216, 
-0.014922022819519043, 0.2738456130027771, 0.49413568033290906, 1791573435625810298, 
0.44870924949645996, -0.34402555227279663, 0.518652343777209, 1791573435655746379, 
-0.16639673709869385, -0.1040385365486145, 0.4902321872381049, 1791573435687469790, 
-0.3315808176994324, 0.20946341753005981, 0.5040859285765549, 1791573435718028508, 
-0.605096697807312, 0.19893473386764526, 0.5470165703489887, 1791573435745603545, 
0.30193430185317993, 0.3905046582221985, 0.4867598022380165, 1791573435775729294, 
0.24395006895065308, 0.2703648805618286, 0.483572857109093, 1791573435805499081, 
-0.5090329647064209, -0.08411794900894165, 0.47794233991972723, 1791573435835626149, 
0.2665015459060669, 0.022332310676574707, 0.4979815339389039, 1791573435865501392, 
-0.12123167514801025, 0.309104859828949, 0.5110345238139521, 1791573435895513846, 
0.443852961063385, -0.028013229370117188, 0.47822078558689857, 1791573435927083791, 
-0.31696510314941406, 0.47225338220596313, 0.5011435016660877, 1791573435958551146, 
0.5722705125808716, 0.50531005859375, 0.5826079763600667, 1791573435985314300, 
-0.501814067363739, -0.047175049781799316, 0.5048629930692139, 1791573436015503732, 
-0.0486149787902832, 0.18047833442687988, 0.4595603083233136, 1791573436037903178, 
-0.51607745885849, 0.026121675968170166, 0.5820485907176999, 1791573436075522160, 
-0.00678640604019165, 0.6142642498016357, 0.5610981025860207, 1791573436105508176, 
0.2382582426071167, 0.03271669149398804, 0.5149960134368073, 1791573436135549900, 
-0.20291608572006226, 0.2237829566001892, 0.479843304527806, 1791573436167153494, 
-3.349781036376953e-05, 0.6938815712928772, 0.4815581339934027, 1791573436198244396, 
-0.07702475786209106, 0.14857685565948486, 0.5178279773913231, 1791573436225482061, 
-0.39761626720428467, -0.5885963439941406, 0.4721668770015925, 1791573436255512881, 
0.2742331027984619, 0.13567614555358887, 0.5011900301965543, 1791573436285452370, 
0.2536856532096863, 0.6044241189956665, 0.5167115283393594, 1791573436315541062, 
-0.2989833950996399, 0.6463250517845154, 0.478590682108094, 1791573436345745202, 
-0.1325540542602539, 0.1707325577735901, 0.4652291442067021, 1791573436375519337, 
-0.5971547365188599, -0.06774669885635376, 0.4978874355075699, 1791573436406926100, 
0.10913372039794922, 0.5644553303718567, 0.5222460690233097, 1791573436437896674, 
-0.06015962362289429, -0.12249785661697388, 0.5430226085706873, 1791573436465445769, 
-0.5673355460166931, -0.3615182042121887, 0.4766781195454815, 1791573436495513313, 
0.3198930025100708, -0.013990342617034912, 0.48854880251809313, 1791573436525454556, 
-0.4787018895149231, 1.0935688018798828, 0.48174332813943926, 1791573436555521918, 
0.149419903755188, 0.08692491054534912, 0.48078365688020547, 1791573436585482003, 
0.023479342460632324, 0.07061535120010376, 0.5235076114479974, 1791573436615583078, 
0.21996724605560303, 0.2947569489479065, 0.5228296782231312, 1791573436647341306, 
-0.4998776912689209, -0.11916649341583252, 0.5079565589583415, 1791573436678014398, 
-0.20351684093475342, -0.2148597240447998, 0.5519297641065517, 1791573436705530025, 
-0.005985677242279053, 0.5352725386619568, 0.5052939576137152, 1791573436735508966, 
0.3454627990722656, 0.6158755421638489, 0.5306869663897151, 1791573436765479659, 
-0.619775652885437, 0.38778966665267944, 0.5349717955454134, 1791573436795527283, 
0.36806291341781616, 0.26165497303009033, 0.504750293031646, 1791573436825469708, 
-0.29475879669189453, 0.06323742866516113, 0.4858327969748776, 1791573436855579071, 
0.03907334804534912, -0.08735722303390503, 0.47777201114648626, 1791573436886833419, 
0.23586976528167725, 0.1812877655029297, 0.4995835134047627, 1791573436917585089, 
-0.1987837553024292, 0.278484582901001, 0.5423635026672594, 1791573436945546416, 
0.23732584714889526, 0.18662339448928833, 0.5074960107833255, 1791573436975828814, 
-0.05819648504257202, 0.015628278255462646, 0.5219855530913008, 1791573437005710091, 
0.575631856918335, 0.14752662181854248, 0.5191173792151222, 1791573437035801318, 
-0.08726102113723755, 0.42347604036331177, 0.4780119803883257, 1791573437065529163, 
-0.0005270242691040039, 0.19292843341827393, 0.4604152694244823, 1791573437095591997, 
0.043023765087127686, 0.1929326057434082, 0.4699600111159094, 1791573437126891559, 
-0.5876019597053528, 0.044467389583587646, 0.5032662921578854, 1791573437157998732, 
0.5106161236763, -0.22491854429244995, 0.5642452227560798, 1791573437185569456, 
-0.5199857354164124, -0.132412850856781, 0.5066431273514717, 1791573437215541266, 
-0.3440983295440674, 0.5465510487556458, 0.5045770587412961, 1791573437245505566, 
0.024292707443237305, 0.20301246643066406, 0.5238418464010424, 1791573437275530970, 
-0.0007861852645874023, 0.5142410397529602, 0.5259859843896638, 1791573437305489834, 
-0.14744943380355835, 0.1909492015838623, 0.5107625996138159, 1791573437335557648, 
-0.22348451614379883, 0.14694708585739136, 0.470806841423545, 1791573437367161468, 
0.5797873139381409, -0.1508885622024536, 0.4773268757402349, 1791573437398041018, 
-0.26318395137786865, 0.09383654594421387, 0.5669806238765598, 1791573437425495851, 
-0.35480713844299316, -0.03120410442352295, 0.49981394459385015, 1791573437455550469, 
-0.20030248165130615, 0.24999135732650757, 0.49450192144183647, 1791573437485483823, 
0.16276365518569946, 0.775506317615509, 0.5002045135887545, 1791573437515531269, 
-0.33876562118530273, 0.305622398853302, 0.5091196508725522, 1791573437545508202, 
0.7762124538421631, 0.09432166814804077, 0.5161490056521162, 1791573437575565972, 
-0.36490291357040405, 0.07258564233779907, 0.48726894375787766, 1791573437607290255, 
-0.12471455335617065, -0.27401411533355713, 0.4861760472949167, 1791573437637664324, 
0.16238707304000854, 0.07565093040466309, 0.5288700745604826, 1791573437665600537, 
-0.4261159896850586, 0.3099015951156616, 0.5092787143335891, 1791573437695567822, 
0.07711392641067505, 0.6381682753562927, 0.5089083307741136, 1791573437725501736, 
-0.19906026124954224, 0.06928545236587524, 0.506282666442223, 1791573437755538162, 
0.9688858985900879, 0.05992835760116577, 0.5045845981811922, 1791573437785517642, 
-0.5248309373855591, 0.17975538969039917, 0.49704491064754114, 1791573437815605043, 
0.16692227125167847, 0.17056459188461304, 0.46353064833657165, 1791573437846892031, 
0.4903481602668762, -0.2705603837966919, 0.5156353580990469, 1791573437876683232, 
-0.5619029402732849, -0.28268957138061523, 0.5349962884096658, 1791573437905502880, 
0.5964320302009583, 0.8646180629730225, 0.503024540469915, 1791573437935526781, 
0.13407444953918457, 0.16484123468399048, 0.5206846037190189, 1791573437965497193, 
0.4109675884246826, 0.4123799800872803, 0.5022700787675022, 1791573437995577463, 
-0.252704918384552, 0.431965172290802, 0.47864579831693654, 1791573438025506069, 
0.2913932800292969, 0.2069595456123352, 0.453522258995597, 1791573438055550301, 
0.03792470693588257, -0.503627359867096, 0.4766587741505713, 1791573438086953672, 
0.16363275051116943, 0.27125799655914307, 0.531145316470077, 1791573438116650396, 
0.6635720729827881, 0.10026025772094727, 0.5377151484206297, 1791573438145582233, 
0.23583179712295532, 0.21066832542419434, 0.5051358326779546, 1791573438175535764, 
-0.28181129693984985, 0.29029959440231323, 0.5070589770644466, 1791573438205533066, 
0.3320729732513428, 0.4404860734939575, 0.5235829576478394, 1791573438235599535, 
0.012956976890563965, 0.3886980414390564, 0.52134601682904, 1791573438265892636, 
0.33966565132141113, 0.05136603116989136, 0.5511103451288334, 1791573438295668753, 
0.01829451322555542, 0.1148303747177124, 0.5263436001492755, 1791573438326980388, 
-0.222409188747406, 0.15288430452346802, 0.5282935315247982, 1791573438357073215, 
-0.07326167821884155, -0.06549924612045288, 0.5496586123596839, 1791573438385735203, 
-0.5852904915809631, 0.21623742580413818, 0.5099883627359584, 1791573438415590452, 
0.5973674058914185, -0.08584380149841309, 0.4683139534077127, 1791573438445527482, 
-0.23386704921722412, 0.04678833484649658, 0.4683193967692615, 1791573438475528113, 
0.638415515422821, 0.23800957202911377, 0.4787949027834409, 1791573438505574463, 
-0.22308170795440674, 0.19649887084960938, 0.4883983491268878, 1791573438535590969, 
0.06047159433364868, 0.787502110004425, 0.4722603383814198, 1791573438567410158, 
0.1098482608795166, 0.2315022349357605, 0.5256554783615652, 1791573438597327609, 
-0.07924270629882812, 0.038106322288513184, 0.5811196329229892, 1791573438625603854, 
0.5226423740386963, 0.01104050874710083, 0.5647670441456798, 1791573438655552391, 
-0.4312657117843628, -0.2608168125152588, 0.5210258003811837, 1791573438685555498, 
0.3606168031692505, -0.03699606657028198, 0.5139960064340886, 1791573438715552689, 
0.5546320676803589, -0.13981276750564575, 0.4855358331597764, 1791573438745573662, 
-0.3690464496612549, 0.8486271500587463, 0.4632835443273908, 1791573438775946951, 
0.48019397258758545, 0.34180688858032227, 0.4679152339163764, 1791573438807021178, 
-0.2651822566986084, 0.45065921545028687, 0.5162628062138925, 1791573438837709167, 
0.7448230385780334, 0.29323315620422363, 0.5315697178092744, 1791573438865593814, 
-0.49940013885498047, -0.12430298328399658, 0.4787702544479672, 1791573438896616830, 
0.2788040041923523, -0.06957405805587769, 0.5365822744335779, 1791573438925609403, 
0.04525887966156006, 0.07069140672683716, 0.5041332137116732, 1791573438955569085, 
0.43987810611724854, 0.32277947664260864, 0.5143140316632576, 1791573438985606401, 
0.10925412178039551, 0.31341540813446045, 0.5318813723393372, 1791573439015826739, 
-0.5222467184066772, 0.1076275110244751, 0.5104486833405825, 1791573439047204434, 
0.06620711088180542, 0.4892500042915344, 0.5169933141369267, 1791573439077251573, 
-0.16916614770889282, 0.11282825469970703, 0.5065853652687371, 1791573439115569482, 
-0.03539323806762695, 0.25544869899749756, 0.4867252745545084, 1791573439145609981, 
0.7069063186645508, 0.5773596167564392, 0.48528874739804045, 1791573439175896852, 
-0.466980516910553, 0.4478381276130676, 0.47016320530856437, 1791573439207585566, 
0.3469695448875427, 0.019868433475494385, 0.5279779264519507, 1791573439237478411, 
-0.4885486364364624, -0.30170315504074097, 0.5487574821996917, 1791573439265672495, 
0.27153199911117554, 0.25939083099365234, 0.496071073053964, 1791573439295592569, 
0.5828479528427124, 0.08905929327011108, 0.4959197009354691, 1791573439325642901, 
0.052566587924957275, -0.05998396873474121, 0.4939193679219291, 1791573439355626373, 
0.09616237878799438, 0.18385517597198486, 0.5226526060229584, 1791573439385680449, 
-0.04491734504699707, 0.3506312370300293, 0.5538214998914741, 1791573439415623211, 
0.11189854145050049, 0.60994553565979, 0.5365751921110073, 1791573439447012819, 
0.02160501480102539, 0.2618069052696228, 0.5201938496936015, 1791573439477290302, 
0.019115209579467773, 0.715093195438385, 0.5314036251625253, 1791573439505654377, 
0.2334432601928711, 0.05361306667327881, 0.47381661007281495, 1791573439535601408, 
-0.6742081642150879, -0.5074849128723145, 0.4518298795153765, 1791573439565834765, 
0.4306149482727051, 0.21425455808639526, 0.4718077350394073, 1791573439595906141, 
-0.241380512714386, 0.20097464323043823, 0.5071973947187618, 1791573439625739452, 
-0.02727872133255005, 0.15636980533599854, 0.5543543012803187, 1791573439655700086, 
-0.013222992420196533, 0.09040743112564087, 0.5393147416719434, 1791573439687153566, 
-0.06411737203598022, -0.2441866397857666, 0.5066956542312989, 1791573439718808457, 
-0.301885187625885, -0.029521584510803223, 0.5478824187745786, 1791573439755599021, 
0.05391925573348999, 0.21073871850967407, 0.4687567904791052, 1791573439785684425, 
-0.31040894985198975, -0.5412465929985046, 0.4569900073859319, 1791573439815636096, 
-0.17592066526412964, 0.38669902086257935, 0.43120699452700484, 1791573439847593888, 
-0.08672237396240234, 0.39137840270996094, 0.5081172816496187, 1791573439877580588, 
-0.1050025224685669, -0.42101365327835083, 0.5811849293043065, 1791573439915918351, 
0.3844643831253052, 0.26714956760406494, 0.5219194348920909, 1791573439945781797, 
-0.1306862235069275, 0.1480342149734497, 0.4901927672532809, 1791573439975725656, 
0.3299713730812073, 0.15889602899551392, 0.48236011736035783, 1791573440007825296, 
0.09521466493606567, 0.625468373298645, 0.5236915003363822, 1791573440037610457, 
-0.037312090396881104, 0.40210866928100586, 0.530055533795886, 1791573440065668890, 
0.24309134483337402, 0.15705519914627075, 0.4947707176212356, 1791573440095812914, 
-0.07242357730865479, 0.20513594150543213, 0.49917877738641636, 1791573440125703244, 
0.3834295868873596, 0.3538290858268738, 0.5306822522469888, 1791573440155617255, 
-0.17991942167282104, -0.15461641550064087, 0.5397515016213753, 1791573440185687970, 
-0.48233169317245483, -0.2567564845085144, 0.5350559104357877, 1791573440215654475, 
0.05077934265136719, -0.10410749912261963, 0.5230202755282579, 1791573440247309707, 
-0.13205403089523315, -0.0007242560386657715, 0.5549193508262129, 1791573440276127337, 
0.19635909795761108, 0.27561622858047485, 0.5153726816515024, 1791573440305726977, 
-0.1538316011428833, 0.30303770303726196, 0.5025497950225185, 1791573440336093752, 
0.0846259593963623, 0.12134522199630737, 0.4592302674711008, 1791573440358456793, 
-0.2053958773612976, 0.009118974208831787, 0.5649632223559706, 1791573440385110102, 
-0.37895894050598145, -0.20732897520065308, 0.47404426229985847, 1791573440415596037, 
0.08927178382873535, -0.029938340187072754, 0.5084926721079048, 1791573440445705703, 
-0.24928855895996094, -0.05540233850479126, 0.5094503355156623, 1791573440475631647, 
0.26180148124694824, 0.5008912086486816, 0.5008763536339105, 1791573440505713931, 
-0.10322928428649902, 0.10187393426895142, 0.5004050896929982, 1791573440535996736, 
-0.07552558183670044, 0.08494889736175537, 0.5163343382725205, 1791573440566975692, 
0.4106139540672302, 0.8068189024925232, 0.5379545755577412, 1791573440598191531, 
-0.2152951955795288, 0.05925393104553223, 0.5412667084810878, 1791573440626026003, 
0.2954818606376648, 0.3484075665473938, 0.5362308265461991, 1791573440655121828, 
-0.045234501361846924, 0.3832215666770935, 0.5191774266912174, 1791573440685668036, 
0.30478835105895996, 0.14756816625595093, 0.5177590607553548, 1791573440715640913, 
-0.20661789178848267, 0.12952113151550293, 0.5423819237404833, 1791573440745689176, 
-0.3383162021636963, -0.11607348918914795, 0.5221630216747344, 1791573440775646769, 
-0.23116523027420044, -0.1777377724647522, 0.4674803435630167, 1791573440808080265, 
0.08159768581390381, -0.07547163963317871, 0.49396545357013366, 1791573440838614742, 
-0.021535396575927734, 0.04114323854446411, 0.5369801641655279, 1791573440865866098, 
-0.4759470224380493, 0.4100344181060791, 0.4993718465795067, 1791573440895643849, 
-0.046957552433013916, -0.09215766191482544, 0.445167512260644, 1791573440917597109, 
0.10245829820632935, 0.4147741198539734, 0.5031755262312708, 1791573440945762660, 
-0.4328765273094177, -0.1799771785736084, 0.4849740559900819, 1791573440976325722, 
0.13727468252182007, -0.14600980281829834, 0.519679751462172, 1791573441005734008, 
-0.11273640394210815, 0.449134886264801, 0.5089300019120323, 1791573441035825704, 
0.43034374713897705, -0.19411462545394897, 0.519169732936842, 1791573441065962340, 
-0.3078734874725342, 0.04733186960220337, 0.5538812598863379, 1791573441095799525, 
0.45281708240509033, 0.027240991592407227, 0.5126484414899537, 1791573441127530709, 
-0.2863959074020386, 0.06863343715667725, 0.5395034630010379, 1791573441157059052, 
0.21720319986343384, 0.07195335626602173, 0.5449549050792005, 1791573441185814794, 
-0.012946903705596924, -0.38692742586135864, 0.5291327549193316, 1791573441215618056, 
-0.488328754901886, 0.4015754461288452, 0.5066588566042264, 1791573441245638384, 
-0.08769786357879639, 0.2854275703430176, 0.5420386113259973, 1791573441275634594, 
-0.04307645559310913, 0.05493980646133423, 0.5638730611193538, 1791573441305646498, 
0.10451161861419678, 0.3587188720703125, 0.5406408935076884, 1791573441335694590, 
-0.3472607135772705, 0.5970667600631714, 0.4910066977122138, 1791573441366117130, 
0.13843733072280884, 0.2572215795516968, 0.48458795767312907, 1791573441397141065, 
0.15779614448547363, 0.2525157332420349, 0.5549712528067993, 1791573441425688819, 
-0.2731296420097351, 0.5146920680999756, 0.5201991432286457, 1791573441455617553, 
0.7292737364768982, -0.13381832838058472, 0.4803016294615522, 1791573441476118480, 
0.13247859477996826, -0.16921383142471313, 0.48724769621983993, 1791573441505651559, 
-0.08936995267868042, 0.2979468107223511, 0.4834528402588956, 1791573441535677835, 
0.646550178527832, 0.31558728218078613, 0.5036627723017106, 1791573441565648879, 
-0.6149951815605164, 0.08573514223098755, 0.4831915863120164, 1791573441595629012, 
0.5971288084983826, 0.5763444304466248, 0.4873313715435824, 1791573441625689233, 
0.04642540216445923, 0.16973203420639038, 0.5022855572461379, 1791573441655699829, 
0.24413257837295532, 0.4049091935157776, 0.45912095136247416, 1791573441687138112, 
0.30352163314819336, 0.09696054458618164, 0.4802661555592152, 1791573441717134781, 
0.07170748710632324, -0.2519811987876892, 0.5313726441525285, 1791573441745099917, 
-0.22651857137680054, 0.26507341861724854, 0.5004156721949953, 1791573441776058868, 
-0.4342672824859619, 0.11579340696334839, 0.5017920153878086, 1791573441805686676, 
0.8537496328353882, -0.19729304313659668, 0.50550247398585, 1791573441835916684, 
-0.3265743851661682, -0.0012415647506713867, 0.550176956590051, 1791573441865691183, 
0.12773287296295166, -0.16858923435211182, 0.5304728829470792, 1791573441895760479, 
-0.528592050075531, -0.11719411611557007, 0.5061775627627451, 1791573441927272912, 
0.37142693996429443, 0.3849530816078186, 0.5510627673489246, 1791573441955828583, 
0.00013428926467895508, 0.13324427604675293, 0.5104322218721362, 1791573441985697796, 
-0.4754014015197754, 0.6502518653869629, 0.4956922162011111, 1791573442015688479, 
0.583848237991333, 0.391526997089386, 0.500973879561964, 1791573442045671937, 
-0.8646307587623596, 0.20205992460250854, 0.4896342076623454, 1791573442076082558, 
0.653695285320282, 0.6988435983657837, 0.5237902184668335, 1791573442105671483, 
-0.18949532508850098, 0.042643964290618896, 0.5413242224377487, 1791573442136058716, 
-0.303256630897522, 0.27529358863830566, 0.5496036210876936, 1791573442166130490, 
-0.48894768953323364, 0.1788928508758545, 0.5665155112063245, 1791573442195257905, 
-0.14243733882904053, -0.30263298749923706, 0.5630076441955532, 1791573442225843903, 
-0.0602259635925293, 0.48140954971313477, 0.5504967484631238, 1791573442255859201, 
-0.31465858221054077, 0.011449754238128662, 0.5229716683268042, 1791573442285770098, 
0.17751145362854004, -0.07057225704193115, 0.4750428629422036, 1791573442315743473, 
-1.0293383598327637, 0.31946349143981934, 0.4478341663346973, 1791573442345739933, 
0.10625040531158447, -0.1991267204284668, 0.47456604814993397, 1791573442375798039, 
-0.525009274482727, 0.06200677156448364, 0.49094909390187247, 1791573442408055292, 
0.5614234209060669, -0.08890581130981445, 0.5289787910030934, 1791573442437071576, 
0.02901434898376465, 0.04021066427230835, 0.48547766699206285, 1791573442465698528, 
0.17106831073760986, -0.10923922061920166, 0.4547195097408063, 1791573442495686967, 
-0.18363219499588013, 0.5056219696998596, 0.47656664467160925, 1791573442525713343, 
-0.2973628044128418, -0.1458829641342163, 0.4955461761357634, 1791573442555761268, 
0.2372990846633911, 0.167525053024292, 0.5274003352773595, 1791573442585701352, 
-0.34521615505218506, 0.4460781216621399, 0.5276631483913398, 1791573442615706125, 
-0.43352580070495605, 0.023396670818328857, 0.4725599783069935, 1791573442647174871, 
0.7642623782157898, 0.5632174611091614, 0.5820165584933683, 1791573442675067723, 
-0.41187548637390137, 0.2525361180305481, 0.5451082363227201, 1791573442705690879, 
-0.06650334596633911, 0.23069876432418823, 0.5303284011210089, 1791573442735690936, 
0.5100423097610474, 0.31338566541671753, 0.4889115014146507, 1791573442765708488, 
-0.4276955723762512, -0.13527393341064453, 0.46854067564693436, 1791573442795657031, 
0.4348781704902649, 0.13713610172271729, 0.491709791458652, 1791573442825024051, 
-0.31518691778182983, 0.18942105770111084, 0.4912406781048903, 1791573442855913203, 
-0.4916532039642334, -0.29407209157943726, 0.4778334013266735, 1791573442887463296, 
0.5966771841049194, 0.03807467222213745, 0.5764434563021679, 1791573442915042687, 
0.1752256155014038, 0.08944320678710938, 0.4997990982095367, 1791573442945705530, 
-0.44113391637802124, -0.13160091638565063, 0.4814368551842509, 1791573442975661837, 
-0.41552239656448364, 0.3079295754432678, 0.5076097985099909, 1791573443005668095, 
0.48213714361190796, -0.15121924877166748, 0.5277896341204007, 1791573443035654197, 
-0.15504777431488037, 0.2101302146911621, 0.5155636838600446, 1791573443064983925, 
0.550179123878479, 0.2845713496208191, 0.4599985501196862, 1791573443096049160, 
-0.025192618370056152, 0.21781235933303833, 0.45524275382754065, 1791573443127213213, 
-0.6827890872955322, 0.7694702744483948, 0.5371901408306767, 1791573443155057431, 
0.4339408874511719, 0.04344022274017334, 0.5128610395386973, 1791573443184984613, 
-0.10404717922210693, 0.2931303381919861, 0.5232582852161405, 1791573443214950840, 
0.3630955219268799, 0.6398724317550659, 0.5204428892700207, 1791573443244952907, 
-0.397777259349823, 0.08174437284469604, 0.47811836388716034, 1791573443275046321, 
0.033821165561676025, -0.19566887617111206, 0.48521803318635676, 1791573443305008039, 
0.17771613597869873, 0.35156118869781494, 0.5081658207099587, 1791573443335225302, 
-0.25119292736053467, -0.257662832736969, 0.4487459040958493, 1791573443367673354, 
-0.060111403465270996, -0.004898190498352051, 0.5228582710502648, 1791573443395052018, 
-0.923212468624115, 0.09551346302032471, 0.46813722697583265, 1791573443425025086, 
-0.05603432655334473, -0.7261121273040771, 0.470279519065986, 1791573443454958909, 
-0.05614203214645386, 0.5141422152519226, 0.48503565805743865, 1791573443484976086, 
0.22612130641937256, 0.16904419660568237, 0.48337643312126527, 1791573443515014501, 
-0.21090126037597656, -0.19413959980010986, 0.49335918421004, 1791573443544986922, 
0.19868308305740356, 0.7748376727104187, 0.4756925852581188, 1791573443575512710, 
0.6459997892379761, 0.2025676965713501, 0.463802530635945, 1791573443607184328, 
-0.3311254382133484, 0.0010946393013000488, 0.5320200617722224, 1791573443635003339, 
0.22426587343215942, 0.7099912762641907, 0.5003150277280142, 1791573443665087455, 
-0.7229969501495361, 0.2556333541870117, 0.48718373113633934, 1791573443694957879, 
0.6317560076713562, 0.14741647243499756, 0.46056606770184144, 1791573443725083175, 
-0.7371414303779602, 0.5621495246887207, 0.46205819505228546, 1791573443755855968, 
0.5962694883346558, 0.40807926654815674, 0.47857354019943543, 1791573443785783352, 
-0.178375244140625, -0.0938214659690857, 0.4683899127470156, 1791573443815745064, 
0.38756054639816284, 0.7042359113693237, 0.47106213212171805, 1791573443847216084, 
-0.39063793420791626, 0.2164573073387146, 0.5592077351746967, 1791573443874960336, 
-0.07386517524719238, 0.03575098514556885, 0.49951341310464614, 1791573443905081736, 
-0.019002318382263184, 0.13288015127182007, 0.4877954850291027, 1791573443934985322, 
-0.04930007457733154, -0.19995343685150146, 0.47377052541834613, 1791573443965017612, 
0.3586253523826599, 0.1521817445755005, 0.48582212119639295, 1791573443994993918, 
-0.5175857543945312, 0.13119769096374512, 0.4967456916393108, 1791573444024982750, 
0.11902815103530884, -0.5056000351905823, 0.4814231565325815, 1791573444055285728, 
-0.3430835008621216, -0.15080440044403076, 0.45607956621458917, 1791573444087457289, 
0.5083345770835876, 0.12438583374023438, 0.5094409289899047, 1791573444114973395, 
-0.33520978689193726, -0.12484192848205566, 0.44989366389861285, 1791573444145049046, 
0.12247174978256226, 0.4030609726905823, 0.4837573823968352, 1791573444174966134, 
