acc_x, acc_y, angular_z, stamp, 
0.023382186889648438, 0.0027673840522766113, 4.849796886966483e-13, 1791572023818125328, 
-0.012664496898651123, 0.009888648986816406, 1.4555730141284087e-11, 1791572023851432199, 
-0.0001925826072692871, -0.035038530826568604, -2.1828355315743086e-06, 1791572023878737878, 
0.006836354732513428, -0.009779751300811768, 1.1790643916201139e-11, 1791572023908751346, 
0.0012308359146118164, 0.029675841331481934, -7.144916914535822e-13, 1791572023938753526, 
-0.009569644927978516, 0.017106294631958008, 1.3183515765705597e-12, 1791572023968696837, 
-0.004249513149261475, -0.020717322826385498, 1.2749823059537538e-12, 1791572023998804069, 
-0.004230082035064697, 0.011578977108001709, -1.0075165052103276e-14, 1791572024028892212, 
-0.007957756519317627, -0.013696432113647461, -6.470684635296976e-13, 1791572024059165404, 
0.02086693048477173, -0.015424132347106934, 7.006617444007493e-13, 1791572024091375105, 
0.0009042620658874512, 0.03132832050323486, -6.16563560399237e-12, 1791572024118764260, 
-0.0012204647064208984, -0.010117709636688232, -1.5319973976347274e-11, 1791572024148678436, 
-0.008684992790222168, -0.009890854358673096, -1.4213867676728999e-11, 1791572024178695803, 
-0.005461275577545166, -0.0330653190612793, 3.120697967995981e-12, 1791572024208726906, 
-0.003939270973205566, -0.0022907257080078125, 1.0034093979538452e-10, 1791572024238197821, 
0.0175209641456604, 0.0033649802207946777, 1.958974632544137e-06, 1791572024268626981, 
0.0008642673492431641, -0.016029417514801025, 1.8836729596525984e-06, 1791572024330994531, 
-0.002946913242340088, 0.00036519765853881836, 2.145010083723507e-06, 1791572024358788520, 
-0.006927609443664551, -0.0026148557662963867, 7.033099764114878e-10, 1791572024478662810, 
0.002142608165740967, -0.01800626516342163, 1.9886810311723094e-06, 1791572024508648271, 
0.007246494293212891, 0.012889683246612549, 1.9182616439031584e-06, 1791572024539738558, 
0.005447804927825928, -0.0029061436653137207, 1.911569980683754e-06, 1791572024570939966, 
-0.01430046558380127, -0.0025902986526489258, 2.142609120852919e-06, 1791572024598777659, 
-0.023361027240753174, -0.014964699745178223, 1.991739233328861e-06, 1791572024628724535, 
-0.017917215824127197, 0.0013715624809265137, 1.988367735389143e-06, 1791572024658722007, 
0.001854538917541504, 0.015620589256286621, 1.988208870155617e-06, 1791572024688719846, 
-0.0016718506813049316, 0.004782259464263916, 1.969622126297116e-06, 1791572024718998089, 
-0.026750683784484863, 0.0027011632919311523, 1.9982028420240817e-06, 1791572024748840717, 
-0.006766200065612793, -0.006455600261688232, 6.48296730429614e-10, 1791572024779237638, 
-0.004816889762878418, -0.0013595223426818848, 1.8790008924169551e-06, 1791572024810966438, 
0.00434035062789917, -0.008700430393218994, 3.3641478524948175e-10, 1791572024838876417, 
0.013215363025665283, 0.0018563270568847656, 2.590335030481875e-10, 1791572024868670012, 
0.0021570324897766113, -0.01957303285598755, 3.012548006749418e-10, 1791572024928635490, 
0.009512245655059814, -0.0022450685501098633, 9.25489817203132e-11, 1791572025051421188, 
-0.026569783687591553, -0.011562228202819824, 2.1835042416109547e-06, 1791572025078719497, 
-0.0051964521408081055, 0.0007739067077636719, -4.6058454755432485e-12, 1791572025108601774, 
0.0018444657325744629, -0.010219275951385498, -6.6993019506881e-11, 1791572025138691270, 
-0.01440882682800293, -0.014103174209594727, 3.978005519803198e-06, 1791572025168657218, 
0.014221370220184326, 0.00012809038162231445, -1.9053695419201254e-10, 1791572025198643461, 
-0.0038643479347229004, 0.005528450012207031, -2.1394380897072782e-10, 1791572025228623861, 
-0.00921255350112915, -0.0035483837127685547, -2.1634913446932916e-10, 1791572025259396399, 
-0.03782278299331665, -0.007079958915710449, -2.0860754421363482e-10, 1791572025291009643, 
0.008907496929168701, 0.008952438831329346, -2.0215152519397123e-10, 1791572025318822933, 
0.016009867191314697, -0.005512356758117676, -2.1348643793880627e-10, 1791572025348703304, 
0.00495755672454834, 0.002997457981109619, -2.9010772138414006e-10, 1791572025378646848, 
-0.0058144330978393555, -0.014936864376068115, -3.344129103220874e-10, 1791572025408686775, 
-0.011075913906097412, -0.018539607524871826, 1.981922155912078e-06, 1791572025438756160, 
0.014208197593688965, 0.004837512969970703, -2.582503344779044e-10, 1791572025469240129, 
0.007132053375244141, 0.003128349781036377, -2.259662572640995e-10, 1791572025499974329, 
-0.0018884539604187012, 0.011975288391113281, -1.9014719281125725e-06, 1791572025531324027, 
6.276369094848633e-05, -0.0022190213203430176, -1.6030090039530156e-10, 1791572025558641932, 
-0.0017215609550476074, 0.022654473781585693, -1.1939709737734986e-10, 1791572025588629650, 
-0.0015265941619873047, -0.009797930717468262, -1.1173369743595561e-10, 1791572025618626613, 
-0.02477705478668213, -0.006280064582824707, -5.7545527352479845e-11, 1791572025648642972, 
-0.0030208230018615723, -0.031302809715270996, -1.0524618474447817e-11, 1791572025678659198, 
-0.009898543357849121, -0.004089951515197754, 3.6167042051324975e-11, 1791572025708850034, 
-0.00627213716506958, -0.02574169635772705, 6.483651864718527e-11, 1791572025738114864, 
0.006519734859466553, -0.023809611797332764, 6.726820875021694e-11, 1791572025771268251, 
0.002979457378387451, -0.00210493803024292, -2.1576577193893647e-06, 1791572025798891957, 
0.012106120586395264, 0.012636125087738037, 3.850835270455987e-11, 1791572025828741131, 
0.006665408611297607, -0.02152860164642334, 1.592697337108189e-11, 1791572025858737945, 
0.001189887523651123, 0.00905919075012207, -3.9388943462883175e-12, 1791572025888603878, 
-0.023756325244903564, -0.017602205276489258, -1.1816872752756822e-11, 1791572025918610205, 
-0.023568391799926758, -0.006837308406829834, -1.9730409064274183e-06, 1791572025948820300, 
0.030549049377441406, -0.0012114644050598145, -7.943401070263225e-11, 1791572025979571471, 
-0.012624621391296387, -0.012095272541046143, -6.012010700528367e-11, 1791572026011396189, 
-0.007385730743408203, -0.0033420324325561523, -3.735290878717452e-11, 1791572026038814084, 
0.012406110763549805, -0.017481505870819092, -2.4094795140502795e-11, 1791572026068676636, 
-0.003816068172454834, 0.014989078044891357, -4.9414702556225325e-11, 1791572026098857952, 
0.0121116042137146, -0.013813257217407227, -4.297693438295254e-11, 1791572026128722090, 
0.020922362804412842, -0.02435082197189331, -2.947534494255338e-11, 1791572026158617003, 
-0.007972240447998047, -0.0008101463317871094, -1.5442105457354795e-11, 1791572026188595041, 
-0.0007156133651733398, 0.001177370548248291, -2.7865280162537794e-11, 1791572026219433604, 
0.044158935546875, 0.028216302394866943, -3.608831964258899e-11, 1791572026250369943, 
0.01691436767578125, -0.004253387451171875, 2.432917302953025e-12, 1791572026278660120, 
0.008472204208374023, -0.011937260627746582, 2.1836812686300042e-11, 1791572026308743066, 
0.12827950716018677, -0.010758817195892334, 0.000439984725584792, 1791572026338815126, 
2.309034585952759, -0.36811548471450806, -0.03834197007706667, 1791572026368556504, 
0.7987394332885742, 0.05334341526031494, -0.09428201991493913, 1791572026398756787, 
1.0517996549606323, 0.322782039642334, -0.03155178412449519, 1791572026428575902, 
1.0988234281539917, 0.03795701265335083, -0.018617004192722754, 1791572026459610624, 
0.9419801235198975, -0.20467352867126465, -0.004236413835353451, 1791572026491068180, 
0.5676155090332031, 0.030505776405334473, 0.025999502494001497, 1791572026518639196, 
-0.3051849603652954, 0.06274241209030151, 0.028429141965225262, 1791572026548548583, 
-0.2790462374687195, -0.06880992650985718, 0.0597078386469969, 1791572026578776741, 
-0.31902599334716797, 0.13311320543289185, 0.049863043276343486, 1791572026608851747, 
-0.5000283122062683, -0.06937456130981445, 0.042993286389411994, 1791572026638651683, 
0.4230342507362366, -0.0629083514213562, 0.016824859258900177, 1791572026668597445, 
0.24004864692687988, 0.035515010356903076, -0.04867278027556996, 1791572026699452586, 
0.03570759296417236, -0.05771058797836304, -0.06019208571003624, 1791572026731078891, 
0.32044053077697754, 0.02368605136871338, 0.016898161520884577, 1791572026758577170, 
-0.13223570585250854, 0.14969277381896973, 0.01595332753146264, 1791572026788585803, 
-0.6301373243331909, -0.07759523391723633, 0.02202269199670293, 1791572026818594422, 
0.9316951632499695, -0.12735241651535034, 0.004323308843961081, 1791572026848786486, 
-0.042276620864868164, 0.13668423891067505, -0.0324150270949589, 1791572026878542713, 
0.03473407030105591, 0.05624574422836304, -0.03784531556251266, 1791572026908549371, 
-0.03258126974105835, -0.06601005792617798, -0.0005869599106677881, 1791572026939413767, 
-0.15002721548080444, 0.020018160343170166, 0.006707531385701807, 1791572026971519791, 
0.06266576051712036, -0.017360270023345947, -0.0005488488885489487, 1791572026998581238, 
-0.12675946950912476, 0.10639721155166626, 0.004465531521968764, 1791572027028550959, 
0.3872520923614502, -0.09275698661804199, -0.011876822098505496, 1791572027058596800, 
-0.25969284772872925, -0.07524752616882324, -0.025204112823641933, 1791572027088543168, 
-0.08206593990325928, 0.0889928936958313, 0.008303030871087797, 1791572027118530833, 
0.1806226372718811, 0.1257932186126709, 0.03186850057165591, 1791572027148538294, 
0.06850117444992065, -0.14322572946548462, 0.012581507692674998, 1791572027179287775, 
-0.16105186939239502, 0.12882667779922485, 0.0012751250322430977, 1791572027211368977, 
-0.12619274854660034, 0.05023753643035889, -0.009224383567695218, 1791572027238657637, 
0.898946225643158, -0.19865453243255615, -0.01701635479554335, 1791572027268519785, 
-0.8251355886459351, -0.11613607406616211, 0.00042562074208143047, 1791572027298571062, 
0.6999013423919678, 0.24157840013504028, 0.002918826712743335, 1791572027328591344, 
-0.2546004056930542, 0.0719711184501648, 0.01423202401125037, 1791572027358554783, 
0.7136625051498413, -0.16203570365905762, 0.0044104751067111595, 1791572027388586011, 
-0.3750265836715698, 0.06322276592254639, 0.010695812495110264, 1791572027419673825, 
0.3941628932952881, -0.05905342102050781, -0.008814020008456172, 1791572027450143287, 
-0.33264023065567017, -0.1759130358695984, -0.006045780201190513, 1791572027478657225, 
0.10850739479064941, 0.08539056777954102, 0.002200633857424594, 1791572027508466493, 
-0.260542094707489, -0.03327524662017822, -0.00745596603573593, 1791572027538525463, 
-0.22478580474853516, -0.06484854221343994, 0.0015451239074993474, 1791572027568456590, 
0.00666123628616333, 0.23219603300094604, 0.005323977716661959, 1791572027598495668, 
-0.38633817434310913, 0.048783957958221436, -0.02467115388670502, 1791572027628475536, 
0.351923406124115, -0.257519006729126, -0.021088729507542134, 1791572027659504785, 
-0.3763960599899292, -0.04021298885345459, 0.01752002133059632, 1791572027691474749, 
0.0015799999237060547, 0.28938060998916626, 0.012463965055753956, 1791572027718575348, 
-0.310924232006073, -0.07200044393539429, -0.012626319502259196, 1791572027748519615, 
-0.014846742153167725, -0.1368529200553894, -0.015803337067620285, 1791572027778515910, 
-0.3576318621635437, 0.06761008501052856, -0.015799700445872165, 1791572027808471927, 
0.33619755506515503, 0.20886802673339844, -0.01293398835993439, 1791572027838629841, 
-0.02904510498046875, -0.1387680172920227, 0.012866733892787882, 1791572027868554314, 
0.39233994483947754, 0.023971080780029297, 0.02368874708919694, 1791572027899555855, 
-0.2245849370956421, -0.09112793207168579, 0.01360388137348269, 1791572027931639257, 
-0.03180408477783203, 0.028354644775390625, 0.006586805454112285, 1791572027958504671, 
0.24045127630233765, 0.1030200719833374, -0.004409930722761202, 1791572027988514201, 
-0.18287569284439087, 0.09775489568710327, -0.004098122462885883, 1791572028017498156, 
-0.4028927683830261, -0.20631688833236694, 0.001021026433125707, 1791572028048485390, 
0.8982606530189514, 0.007415890693664551, 0.029016396990628215, 1791572028077473560, 
-0.383273184299469, 0.21315783262252808, 0.024690342623126475, 1791572028108517960, 
0.19418901205062866, -0.22493809461593628, 0.005346049552076372, 1791572028138321163, 
0.10410887002944946, -0.033274948596954346, -0.02381197207423621, 1791572028170257697, 
0.12303274869918823, -0.0044272541999816895, -0.028333618178305275, 1791572028198505949, 
-0.07984024286270142, -0.09561055898666382, 0.004824496683466444, 1791572028227437336, 
0.24012744426727295, 0.05476939678192139, 0.019578916110965502, 1791572028257478968, 
-0.04865682125091553, 0.09769707918167114, 0.009811982457399874, 1791572028288503333, 
-0.2430945634841919, -0.10117506980895996, -0.004633728799596488, 1791572028317481315, 
0.221443772315979, -0.1655641794204712, -0.0027385315506092958, 1791572028347583830, 
0.15907174348831177, 0.20367741584777832, -0.005231715087693811, 1791572028378866049, 
0.06275069713592529, -0.009181320667266846, -0.0002062360276277983, 1791572028410242547, 
-0.23056870698928833, -0.11854571104049683, 0.008175198503180948, 1791572028437525314, 
0.0684097409248352, -0.07844418287277222, -0.0012726861635612365, 1791572028467460914, 
0.06262904405593872, 0.02749311923980713, -0.003820768585018031, 1791572028497568942, 
-0.5847259759902954, -0.026831984519958496, -0.010485097439594773, 1791572028527462520, 
0.5894123911857605, -0.014171957969665527, -0.026954026063176227, 1791572028558469435, 
-0.7246797680854797, 0.0643988847732544, -0.0027607265033760438, 1791572028588446509, 
0.6441123485565186, -0.03048241138458252, 0.02489474047392339, 1791572028618539012, 
-0.3413093686103821, 0.15988320112228394, 0.031237545997285676, 1791572028651265572, 
0.4375830292701721, -0.23973876237869263, 0.00897522668515701, 1791572028677578308, 
-0.6478115916252136, -0.034417688846588135, -0.016570086207790834, 1791572028707498794, 
0.4938320517539978, 0.14740794897079468, -0.020501819957250093, 1791572028738608061, 
-0.42219090461730957, -0.10535186529159546, -0.018231873677110044, 1791572028768763679, 
0.3925618529319763, 0.035034894943237305, -0.006866629182608769, 1791572028798568912, 
-0.13299065828323364, 0.0837218165397644, 0.0023320345732861215, 1791572028828522275, 
-0.6704633235931396, 0.1376381516456604, -0.006870571885344296, 1791572028859329502, 
0.8667399883270264, -0.29927366971969604, 0.009929888283264375, 1791572028891900733, 
-0.20366376638412476, 0.016023099422454834, 0.009749009194300055, 1791572028918547735, 
0.1395931839942932, -0.06502747535705566, -0.021632194749153805, 1791572028948457574, 
-0.20661324262619019, 0.01370859146118164, -0.035687194397035375, 1791572028978510642, 
0.012113869190216064, 0.001307368278503418, -0.012659102908161534, 1791572029008494273, 
0.003016173839569092, -0.12845289707183838, 0.015221804944749867, 1791572029038477522, 
0.17795240879058838, 0.1779935359954834, 0.028026753180575497, 1791572029068431024, 
-0.06277132034301758, 0.011672139167785645, 0.006207748752892474, 1791572029099486225, 
0.019277215003967285, -0.09779542684555054, -0.016991098069302827, 1791572029131381304, 
-0.05633211135864258, -0.06462007761001587, -0.023756248206308426, 1791572029158567744, 
0.45806241035461426, 0.10470753908157349, 0.021184653430200217, 1791572029188425339, 
-0.25831782817840576, -0.10635918378829956, 0.03468106569341869, 1791572029218695511, 
0.06124752759933472, -0.16774171590805054, 0.037496916102096677, 1791572029248648231, 
0.05388164520263672, 0.38266921043395996, 0.0056153155758244646, 1791572029278560519, 
0.9487993717193604, -0.09698319435119629, -0.04129219784704445, 1791572029308455637, 
-0.4668641686439514, -0.33905482292175293, -0.028753202606192865, 1791572029340524913, 
0.035700440406799316, 0.1711549162864685, 0.012036918391096095, 1791572029371555728, 
0.0660744309425354, 0.33892756700515747, 0.047838997357210145, 1791572029398527616, 
-0.049324989318847656, -0.18184775114059448, 0.021271345739102904, 1791572029428465671, 
-0.05705755949020386, -0.04804748296737671, 0.00139573760402899, 1791572029458412126, 
0.06456160545349121, 0.06102752685546875, -0.014239110287805567, 1791572029488440422, 
-0.09548062086105347, -0.13258147239685059, -0.028129780583131623, 1791572029518550259, 
-0.1778496503829956, -0.13189184665679932, 0.002205345775109706, 1791572029548449027, 
0.45802366733551025, 0.23765450716018677, 0.007520543616552824, 1791572029579432012, 
-0.38294798135757446, 0.015615642070770264, -0.004200207085876717, 1791572029611496581, 
0.30535537004470825, -0.13598883152008057, -0.008409299384983682, 1791572029638492143, 
-0.2843779921531677, 0.06864529848098755, 0.011904640886561466, 1791572029668444956, 
-0.0276450514793396, -0.040866315364837646, -0.003575363002258735, 1791572029698412069, 
-0.29085999727249146, -0.10671573877334595, -0.0041828231423476974, 1791572029728433682, 
-0.20602118968963623, 0.04233461618423462, 0.006873353429779691, 1791572029758427376, 
0.033929526805877686, 0.039177119731903076, -0.008990867428191548, 1791572029788440837, 
-0.5049168467521667, 0.09750080108642578, -0.005047113320617462, 1791572029819733104, 
0.21113455295562744, -0.026252686977386475, 0.0020909435295448564, 1791572029851662890, 
-0.3370959162712097, 0.15120911598205566, 0.0014696927390162693, 1791572029878818651, 
0.4809688925743103, -0.2304319143295288, 0.014264923313950243, 1791572029908421427, 
-0.307009220123291, 0.015408337116241455, 0.02913913889063492, 1791572029938409346, 
0.12020117044448853, 0.10526072978973389, 0.01971488347445299, 1791572029968414644, 
-0.4975525736808777, 0.07384699583053589, -0.010214743864678874, 1791572029998435854, 
-0.037770867347717285, -0.2066168189048767, -0.010761145112418125, 1791572030028416076, 
-0.14171630144119263, -0.008836209774017334, -0.01153141017528827, 1791572030059571407, 
-0.19666427373886108, 0.18495702743530273, -0.026349978387738365, 1791572030091339807, 
0.9039814472198486, -0.3321796655654907, -0.012245688736460092, 1791572030118990097, 
-0.5149925351142883, 0.20450586080551147, 0.0235538632434013, 1791572030148585548, 
-0.1572992205619812, -0.12017369270324707, 0.018048017467463994, 1791572030172285625, 
-0.06672132015228271, 0.16121941804885864, 0.030088884252766228, 1791572030198494276, 
-0.23266386985778809, 0.01818239688873291, 0.012620915285955657, 1791572030228401673, 
0.06570297479629517, 0.003037393093109131, -0.006338632360569622, 1791572030258512769, 
-0.0933484435081482, -0.14941173791885376, -0.03771107824278477, 1791572030288456925, 
0.3573809862136841, -0.007256507873535156, -0.012588235899356792, 1791572030318364601, 
-0.2205236554145813, 0.13745397329330444, 0.006695612705384967, 1791572030348411943, 
-0.06592625379562378, -0.03474980592727661, 0.004620015587048717, 1791572030379480741, 
0.06262463331222534, 0.21132034063339233, -0.002645175811363512, 1791572030411670362, 
0.06166815757751465, 0.09537249803543091, -0.02266636396575342, 1791572030438446586, 
-0.1605406403541565, -0.29954099655151367, 0.00017446816089906547, 1791572030468418245, 
-0.56199711561203, 0.054543137550354004, 0.02763505042555682, 1791572030491736956, 
1.3912737369537354, 0.21719890832901, 0.02879238759530352, 1791572030528368627, 
-0.4580215811729431, -0.03829580545425415, 0.0013941627867106155, 1791572030558684044, 
0.14313912391662598, -0.12495505809783936, -0.01642643742668337, 1791572030588437813, 
-0.1400817632675171, 0.05366706848144531, -0.018932169374579696, 1791572030620089040, 
0.1586180329322815, 0.05578666925430298, -0.015276240638165612, 1791572030651503781, 
0.14964282512664795, 0.15741735696792603, 0.028612318203108986, 1791572030688391774, 
-0.17230606079101562, -0.0818052887916565, 0.010450928832976202, 1791572030718615198, 
-0.15940213203430176, 0.04362285137176514, -0.0076108111284997, 1791572030748383993, 
-0.2657642364501953, 0.014644145965576172, -0.002798967616462101, 1791572030779366268, 
0.04547959566116333, -0.08934146165847778, -0.007737898147681922, 1791572030811772121, 
-0.38015204668045044, 0.033593714237213135, -0.013148588124165188, 1791572030838478222, 
0.5549424886703491, 0.02870100736618042, -0.0007620487186493952, 1791572030868336812, 
-0.7130087614059448, 0.12279927730560303, 0.022904288588515852, 1791572030898381508, 
-0.37445706129074097, -0.22755283117294312, 0.018561498325794356, 1791572030928346516, 
-0.3886502981185913, -0.00840771198272705, -0.0005572483809462114, 1791572030958370165, 
-0.07831400632858276, 0.05297034978866577, -0.001550372810940881, 1791572030988363698, 
-0.046124279499053955, 0.03414320945739746, -0.01225594515302213, 1791572031019590132, 
0.15029215812683105, -0.16638422012329102, 0.002196440399792477, 1791572031051306761, 
-0.1665552854537964, 0.15038710832595825, 0.0017380978649821645, 1791572031078705968, 
0.04257643222808838, 0.13407522439956665, 0.017147468396956564, 1791572031108360493, 
-0.25128084421157837, -0.16401070356369019, 0.02075008791889766, 1791572031138352291, 
0.048819124698638916, -0.0687599778175354, 0.007775265307751049, 1791572031168726374, 
-0.15073078870773315, 0.19920527935028076, -0.036177526634980924, 1791572031198399415, 
-0.0384899377822876, 0.0011637210845947266, -0.04284526289549967, 1791572031228404270, 
0.10674852132797241, -0.13098227977752686, 0.0011468184940525098, 1791572031259991587, 
-0.2810456156730652, 0.1132192611694336, 0.020756727661573427, 1791572031291368763, 
0.05410909652709961, 0.040440499782562256, 0.025617301458562787, 1791572031328489165, 
0.06638401746749878, -0.11731284856796265, -0.007082524187535016, 1791572031358367984, 
-0.6679032444953918, -0.06321406364440918, -0.018403272538102464, 1791572031388415755, 
0.28848254680633545, 0.0774463415145874, -0.009412194421720246, 1791572031419599893, 
-0.24011951684951782, 0.07522261142730713, 0.00617122874260571, 1791572031450759607, 
0.3630656599998474, 0.027537167072296143, 0.0034042193710913464, 1791572031478493862, 
-0.3579280376434326, -0.03902316093444824, 0.0033706424512071113, 1791572031508330553, 
0.7048546075820923, 0.0812760591506958, -0.006420076444911759, 1791572031538669745, 
-0.2773286700248718, 0.0714448094367981, -0.013205843202439496, 1791572031568401944, 
0.24676483869552612, -0.16007578372955322, 0.005168386329546055, 1791572031598404793, 
-0.32262831926345825, -0.080563485622406, 0.03918639993561505, 1791572031628380051, 
0.497200608253479, -0.03236889839172363, 0.02381317133949149, 1791572031659385934, 
-0.37804198265075684, 0.3161677122116089, 0.004821972942153576, 1791572031691709459, 
-0.12585663795471191, -0.026405930519104004, -0.0006658825084963768, 1791572031728332802, 
0.4134276509284973, -0.17216235399246216, -0.010579364942913755, 1791572031758620905, 
-0.8824545741081238, -0.10328030586242676, 0.01896980669423249, 1791572031788334663, 
0.9333962202072144, 0.1585674285888672, 0.02759993528343106, 1791572031820065410, 
-0.49495983123779297, 0.04018908739089966, -0.0065708586770871534, 1791572031851348391, 
0.5024363994598389, -0.22599834203720093, -0.013220060666474109, 1791572031878431796, 
-0.36687201261520386, 0.2804040312767029, 0.0020375926053401885, 1791572031908334512, 
0.5853180885314941, -0.178108811378479, -0.014299078165003979, 1791572031938340790, 
-0.6206408143043518, -0.08832961320877075, -0.025218912709031694, 1791572031968336904, 
0.7458400130271912, -0.04054468870162964, 0.0019016116195589665, 1791572031998367367, 
-0.3487597107887268, 0.1248212456703186, 0.01849672894881174, 1791572032028358532, 
-0.016886115074157715, -0.12206143140792847, 0.011598070344051765, 1791572032059692643, 
-0.11436420679092407, -0.013161540031433105, 0.006987347883562912, 1791572032091961259, 
-0.04858344793319702, -0.03674471378326416, -0.01462357892586158, 1791572032118383014, 
-0.009788095951080322, -0.12448620796203613, -0.030923711869243704, 1791572032148340979, 
-0.311633825302124, 0.07907003164291382, -0.0063204994035929675, 1791572032178355080, 
-0.29401326179504395, 0.12417483329772949, -0.006415372523960656, 1791572032208306665, 
-0.14981281757354736, -0.06600826978683472, -0.008448929693303743, 1791572032238368964, 
-0.29838740825653076, -0.14338773488998413, 0.006120938406382782, 1791572032268352630, 
-0.02502506971359253, 0.12350839376449585, 0.012206802516590088, 1791572032299515731, 
-0.08661609888076782, 0.181166410446167, 0.0004945530962302101, 1791572032331387297, 
0.08993834257125854, -0.3016358017921448, 0.001114805173737924, 1791572032358311738, 
-0.07153582572937012, 0.054405033588409424, 0.02922413767368899, 1791572032388328736, 
-0.09189862012863159, 0.11096704006195068, 0.025433744021638966, 1791572032418766399, 
-0.1513882875442505, 0.07569742202758789, 0.008745374379999657, 1791572032448331703, 
0.08420610427856445, 0.021846234798431396, -0.012200947561971511, 1791572032478334711, 
-0.005005955696105957, -0.03010857105255127, -0.022977624642330188, 1791572032508308825, 
-0.6751216650009155, -0.16389697790145874, -0.0098600287781492, 1791572032540185880, 
1.0632686614990234, 0.027072668075561523, 0.02032385470904169, 1791572032571455208, 
-0.3213825821876526, 0.22515344619750977, 0.00987047962662168, 1791572032598392661, 
0.2040444016456604, -0.23380547761917114, 0.007238018544770927, 1791572032628332024, 
-0.13470643758773804, 0.08713233470916748, -0.0021737928574939018, 1791572032658309262, 
0.00675356388092041, 0.07567286491394043, -0.023053190820418002, 1791572032688580881, 
-0.14777421951293945, -0.31848132610321045, -0.02114856433601343, 1791572032718492779, 
-0.08840084075927734, -0.08446282148361206, 0.00620260983899162, 1791572032748366458, 
0.31980443000793457, 0.2727721333503723, 0.021283836311817718, 1791572032779517997, 
-0.0024701356887817383, 0.1052025556564331, 0.021901072063700927, 1791572032811878461, 
0.3397892713546753, -0.13095903396606445, 0.024478963255142077, 1791572032838423710, 
-0.384620726108551, 0.11532914638519287, 0.004389000913768849, 1791572032868315075, 
0.18516093492507935, 0.014798462390899658, -0.0027212978534503656, 1791572032898289127, 
-0.39198923110961914, -0.15623188018798828, 0.02055961081787018, 1791572032928431827, 
0.48020899295806885, 0.14559459686279297, 0.022672859906809242, 1791572032958854122, 
-0.19972634315490723, -0.01841294765472412, -0.009587634677674872, 1791572032988286152, 
-0.3016543984413147, -0.02636808156967163, -0.018175751887149316, 1791572033019528916, 
0.1698741912841797, -0.0866284966468811, -0.017417066643438874, 1791572033052049392, 
-0.7048148512840271, 0.18385308980941772, -0.019898965850959096, 1791572033078359139, 
0.40645384788513184, 0.05764824151992798, -0.00875093111697485, 1791572033108298363, 
-0.41930902004241943, -0.011197388172149658, 0.0035765525043518417, 1791572033138296349, 
0.4111759662628174, -0.05559784173965454, -0.003362773255901399, 1791572033168286160, 
-0.35084259510040283, -0.12161624431610107, 0.0022059038182389587, 1791572033198225864, 
0.3972451090812683, 0.10040813684463501, -0.013028118756192286, 1791572033228282734, 
-0.26555418968200684, 0.01782172918319702, -0.029174425930629085, 1791572033260349296, 
0.4133673310279846, -0.0708838701248169, -0.000811333996873492, 1791572033292163157, 
-0.05821758508682251, 0.07894527912139893, 0.019992135801574946, 1791572033328279589, 
-0.36598527431488037, 0.03854125738143921, 8.13583529902785e-05, 1791572033358217933, 
0.7772130370140076, -0.15017110109329224, 0.006966862418878449, 1791572033388273731, 
-0.5577155351638794, 0.12194949388504028, 0.010515377254260053, 1791572033419547480, 
0.5620529651641846, 0.006794631481170654, -0.021112040845917335, 1791572033451502153, 
-0.037519097328186035, -0.10496872663497925, -0.013781185648488724, 1791572033478376736, 
0.188265860080719, 0.1034594178199768, 0.01293257341510321, 1791572033508259225, 
0.03516685962677002, -0.027319252490997314, 0.032640637773783863, 1791572033538260943, 
0.0845557451248169, -0.057699620723724365, 0.02839849486535092, 1791572033568255604, 
-0.1471397876739502, 0.051621973514556885, 0.001747156074995549, 1791572033598364675, 
-0.02757507562637329, -0.03474998474121094, -0.02294386399238924, 1791572033628266803, 
0.004606723785400391, -0.07521975040435791, -0.02408736523323257, 1791572033659513348, 
0.05644571781158447, -0.033601582050323486, 0.003520552848594105, 1791572033691831596, 
0.07387375831604004, 0.06411129236221313, 0.01580421242346569, 1791572033728282674, 
-0.5233472585678101, -0.13935822248458862, 0.01630855534423022, 1791572033758276737, 
0.6218092441558838, 0.15288078784942627, -0.007460887767501016, 1791572033788263470, 
-0.19180899858474731, 0.20794397592544556, -0.01743255138339191, 1791572033820250700, 
-0.09043365716934204, -0.3906480669975281, -0.0033099325425760486, 1791572033851712228, 
-0.18606340885162354, -0.12585937976837158, 0.03163631836007729, 1791572033878378141, 
0.09763789176940918, 0.3901793360710144, 0.03571600026697148, 1791572033908239075, 
-0.11297780275344849, 0.07822924852371216, 0.0007362912531510414, 1791572033938247586, 
0.2091478705406189, -0.3311886787414551, -0.022926268668760953, 1791572033968248744, 
0.11460155248641968, 0.05412447452545166, -0.012655989138268233, 1791572033998220403, 
0.10035943984985352, 0.2160247564315796, 0.006089033491348486, 1791572034028264869, 
-0.1947672963142395, -0.012513279914855957, 0.017951212107080075, 1791572034059509974, 
0.20700138807296753, -0.13281667232513428, 0.0019543285849340005, 1791572034091100221, 
0.1577858328819275, 0.11472386121749878, 0.003611951511071662, 1791572034118615591, 
-0.07724076509475708, 0.10696762800216675, 0.021417849233197974, 1791572034148380423, 
-0.1917594075202942, 0.1872091293334961, 0.015465673581290197, 1791572034171619018, 
-0.33297085762023926, -8.45193862915039e-05, -0.011391817725536954, 1791572034208291987, 
-0.1718195676803589, -0.11516344547271729, 0.0022849423460979167, 1791572034238365737, 
-0.048339247703552246, 0.013471126556396484, 0.011715357627909784, 1791572034268321312, 
-0.2174931764602661, 0.08525693416595459, 0.007054875065237988, 1791572034299571137, 
-0.19695669412612915, 0.03183567523956299, 0.009456239918937634, 1791572034331917608, 
0.06444638967514038, -0.06857705116271973, -0.006678052617387682, 1791572034359067132, 
-0.1822490096092224, -0.1332533359527588, -0.03661791516632573, 1791572034388242816, 
-0.0790172815322876, 0.04084634780883789, -0.006248418099032875, 1791572034418201239, 
0.024709880352020264, 0.07647299766540527, 0.0014725734113127057, 1791572034448228968, 
-0.316011905670166, 0.08841633796691895, -0.004782478803128289, 1791572034478228091, 
-0.29909223318099976, -0.14210748672485352, -0.008855703705286632, 1791572034508267026, 
-0.04864501953125, -0.04449707269668579, 0.002245644308315433, 1791572034539973495, 
-0.4381260275840759, 0.08897745609283447, -0.0028614662226589967, 1791572034571768282, 
0.5962973237037659, -0.0034700632095336914, -0.016259261843909027, 1791572034598285370, 
-0.3182997703552246, -0.0980026125907898, 0.016780166185926634, 1791572034628192725, 
0.04216724634170532, -0.04214274883270264, 0.02039642277854028, 1791572034658187810, 
-0.1375371217727661, 0.07110142707824707, 0.0064594561588425655, 1791572034688242113, 
-0.05439943075180054, -0.08303022384643555, -0.010158486193384114, 1791572034718264509, 
-0.030454933643341064, -0.026041746139526367, -0.008368956345984398, 1791572034748276724, 
-0.3388943076133728, 0.02812868356704712, -0.006920515994514438, 1791572034780074565, 
0.4486892819404602, -0.045538246631622314, 0.015237982824803008, 1791572034811486085, 
-0.4560425877571106, 0.04425609111785889, 0.02199709296067636, 1791572034838297854, 
0.18709081411361694, -0.1458922028541565, 0.009475605487086057, 1791572034868183087, 
-0.34123140573501587, -0.022368311882019043, -0.0015334803680643067, 1791572034891485770, 
0.013323664665222168, -0.11899393796920776, -0.034821311399477244, 1791572034918344381, 
0.05881333351135254, 0.18421798944473267, -0.023088189966674298, 1791572034948226188, 
-0.2193107008934021, -0.14907312393188477, 0.023770468018089925, 1791572034978231666, 
0.2568565607070923, -0.02529853582382202, 0.030958681850341264, 1791572035008202038, 
-0.3289791941642761, -0.016516268253326416, 0.0019145018337814945, 1791572035038174187, 
-0.24962109327316284, 0.13085144758224487, 0.005746639014059714, 1791572035068232566, 
-0.106625497341156, -0.05093127489089966, 0.00063899301508952, 1791572035100000416, 
-0.3489885926246643, 0.10153406858444214, -0.012235465618862608, 1791572035131479158, 
-0.0032732486724853516, -0.026209652423858643, 0.007870047647386216, 1791572035158329080, 
0.016437530517578125, 0.06778711080551147, 0.02160123593011426, 1791572035188218122, 
-0.07049685716629028, 0.0005983114242553711, -0.0036516741454400634, 1791572035218184817, 
-0.06986045837402344, 0.13396376371383667, 0.004110913451125418, 1791572035248173905, 
-0.2796802520751953, 0.017138540744781494, 0.005892050567263437, 1791572035278170566, 
0.0887344479560852, -0.18502604961395264, -0.019521168014849773, 1791572035308212253, 
-0.08049815893173218, 0.1223418116569519, -0.006910531517723458, 1791572035339676153, 
0.3886250853538513, 0.10993283987045288, 0.011668408965623637, 1791572035371491920, 
-0.8924031853675842, 0.07880496978759766, 0.0141711991505819, 1791572035398258019, 
0.687467098236084, -0.1286436915397644, 0.0061865169121892525, 1791572035428245719, 
-0.5486949682235718, -0.025144755840301514, 0.010714531526031159, 1791572035458448284, 
-0.0720973014831543, 0.28978097438812256, -0.0020865099736254184, 1791572035488260887, 
-0.14733600616455078, -0.1883174180984497, -0.009392892981328732, 1791572035518203415, 
-0.005430042743682861, -0.07705998420715332, -0.00032501953725781627, 1791572035548221151, 
0.28348004817962646, 0.18363851308822632, 0.002927435904471451, 1791572035579902997, 
-0.13571208715438843, -0.06899625062942505, 0.0006749351816300142, 1791572035611371485, 
0.1972915530204773, -0.10530036687850952, -0.003898820468034263, 1791572035638255132, 
-0.2268034815788269, 0.09790563583374023, -0.011316350132977744, 1791572035668139757, 
0.36680150032043457, 0.07199662923812866, -0.02414782463930775, 1791572035698165197, 
-0.5733903646469116, -0.14121109247207642, -0.012790315703911962, 1791572035728178522, 
0.3076767325401306, -0.03548777103424072, 0.010098927802256298, 1791572035758190146, 
-0.06887996196746826, 0.0047637224197387695, 0.00733259641582915, 1791572035788245728, 
0.06234794855117798, 0.11148488521575928, 0.007719279718160473, 1791572035819919102, 
-0.39225834608078003, -0.10827261209487915, -0.012780106775535514, 1791572035851533295, 
-0.2676611542701721, -0.06917279958724976, -0.029597244186138877, 1791572035878196652, 
0.05584961175918579, 0.051171958446502686, -0.013202549296101417, 1791572035908147771, 
-0.3328559994697571, 0.07446897029876709, 0.022628065242169138, 1791572035938142832, 
0.15363234281539917, 0.013147294521331787, 0.026458725053207576, 1791572035968168536, 
-0.3361532688140869, -0.07032227516174316, 0.022202660101379054, 1791572035998488121, 
0.3718729019165039, 0.1809326410293579, 0.01015476317399506, 1791572036028182152, 
-0.3533671498298645, 0.14431166648864746, -0.014572676542879269, 1791572036060264430, 
0.3506811261177063, -0.26322394609451294, -0.00988298551598937, 1791572036090180732, 
-0.11365950107574463, -0.06187546253204346, 0.016022163177485834, 1791572036128134872, 
0.41912519931793213, -0.033783793449401855, 0.004582123722457935, 1791572036158156044, 
-0.2955673933029175, 0.11277848482131958, 0.00844276807337986, 1791572036188194673, 
0.13180440664291382, -0.09112793207168579, 0.0009256896389346261, 1791572036219976287, 
0.22335153818130493, -0.03890550136566162, -0.018582503858736568, 1791572036251474539, 
-0.7508237361907959, 0.06152433156967163, -0.010459496776720522, 1791572036278220877, 
0.751898467540741, 0.19367676973342896, 0.02525762438223297, 1791572036307113356, 
-0.3962307572364807, -0.026469290256500244, 0.0004897876574867264, 1791572036337109171, 
0.5368275046348572, -0.10556095838546753, -0.015123470240166813, 1791572036368277850, 
-0.35352498292922974, 0.11310476064682007, -0.006733454105221209, 1791572036398177108, 
0.7340028882026672, -0.02999168634414673, -0.020368693725347106, 1791572036428176517, 
-0.7685125470161438, -0.02371203899383545, -0.01121567380109478, 1791572036459918429, 
0.5935376286506653, -0.022181212902069092, 0.00564076156432459, 1791572036491056497, 
-0.21096229553222656, 0.05872422456741333, 0.01889426097293685, 1791572036518222220, 
0.11696290969848633, 0.15762245655059814, 0.007490667456086829, 1791572036539853867, 
-0.1579422950744629, -0.013467192649841309, 0.005697870570082452, 1791572036570193407, 
0.20864218473434448, 0.05637991428375244, -0.0013659083347319024, 1791572036598194934, 
-0.36007779836654663, 0.1769220232963562, -0.010921082549760852, 1791572036627133298, 
1.26626718044281, -0.243710458278656, 0.010214619896282908, 1791572036657115684, 
-0.5824769139289856, 0.02875572443008423, 0.009317337897798702, 1791572036687125496, 
0.448747456073761, 0.2027915120124817, -0.007191607252317177, 1791572036717107057, 
-0.4668084979057312, -0.3171149492263794, -0.009057654627958798, 1791572036748229537, 
0.18064391613006592, 0.15080732107162476, 0.003108038342323259, 1791572036779783487, 
-0.39907604455947876, 0.1637776494026184, -0.00335057280374804, 1791572036810670130, 
0.15884119272232056, -0.06470638513565063, -0.020669063613290958, 1791572036838276782, 
0.005446910858154297, -0.116568922996521, 0.012967064930423787, 1791572036867125222, 
0.08432823419570923, 0.15811800956726074, 0.017368804523174523, 1791572036898088849, 
0.07169586420059204, -0.03147327899932861, -0.007421267417923045, 1791572036927094177, 
-0.42067950963974, -0.0824398398399353, 0.004805442751805732, 1791572036958089944, 
0.36530131101608276, 0.024672269821166992, 0.00768931306398098, 1791572036988204108, 
-0.6955908536911011, 0.021297335624694824, -0.0023357505150647952, 1791572037020083726, 
0.6394166946411133, -0.1523788571357727, 0.008975880167041516, 1791572037051248573, 
-0.38891834020614624, -0.012002229690551758, 0.027834138096082938, 1791572037078174374, 
0.23401927947998047, -0.06651705503463745, 0.024305296553662793, 1791572037107104766, 
-0.34907686710357666, 0.2763335704803467, 0.022681731847408803, 1791572037138066334, 
0.03958332538604736, -0.18938696384429932, -0.010833289624779495, 1791572037167115339, 
-0.2187567949295044, -0.05121409893035889, -0.031030141414019875, 1791572037197101874, 
0.16850221157073975, -0.08509355783462524, 0.023584517782941294, 1791572037227127843, 
0.19009649753570557, 0.19148796796798706, 0.033715473383634065, 1791572037259110797, 
-0.14747238159179688, -0.05270695686340332, 0.003140780741050119, 1791572037290791606, 
0.32363778352737427, -0.001956343650817871, -0.015700235231906362, 1791572037318161960, 
-0.09379839897155762, -0.1603304147720337, -0.003911929326464478, 1791572037340224271, 
-0.2992866039276123, 0.19910657405853271, -0.003155609449680004, 1791572037370905354, 
-0.15687686204910278, 0.03632861375808716, -0.007374740651582066, 1791572037398196869, 
-0.4181487560272217, 0.009220719337463379, 0.00977072014891424, 1791572037428089730, 
0.5801138281822205, -0.053686678409576416, 0.006531979579307553, 1791572037457103448, 
-0.1254333257675171, 0.138929545879364, -0.0004147812639710691, 1791572037488081761, 
-0.28161829710006714, -0.12906688451766968, 0.0042992776494999805, 1791572037518061614, 
-0.009676218032836914, 0.02400428056716919, -0.0031475261396308493, 1791572037548092389, 
-0.11916846036911011, 0.1739879846572876, -0.02298043513333737, 1791572037579743373, 
0.23178863525390625, -0.11666238307952881, -0.0016469673443083592, 1791572037610811725, 
-0.26937955617904663, -0.017664074897766113, 0.019523785829337097, 1791572037638190069, 
0.5270653367042542, 0.01517331600189209, 0.014017053716571082, 1791572037667113626, 
-0.32489269971847534, -0.14966899156570435, 0.01292711055645595, 1791572037690786178, 
0.44549500942230225, 0.11598879098892212, 0.012502183943138918, 1791572037728090324, 
-0.3616707921028137, 0.04956895112991333, -0.01056982386935671, 1791572037758072202, 
0.7798144221305847, -0.07089543342590332, 0.008307684215035391, 1791572037788340583, 
-0.3485698103904724, 0.17585504055023193, 0.004515312959089323, 1791572037819849822, 
-0.04603630304336548, -0.011854410171508789, -0.010400268940345968, 1791572037851197374, 
0.19717395305633545, -0.21878045797348022, -0.013280860374478986, 1791572037888082792, 
-0.3849232792854309, 0.1870773434638977, -0.004125090503686676, 1791572037917124010, 
0.5386387705802917, 0.07618093490600586, -0.0300793933604741, 1791572037948072051, 
-0.5901985168457031, -0.12743866443634033, -0.027199798389751246, 1791572037980528894, 
0.6013135313987732, 0.07730472087860107, 0.011500531197466688, 1791572038011086464, 
-0.28065043687820435, 0.07734793424606323, 0.015554455622386151, 1791572038038177250, 
0.3353903293609619, -0.11785668134689331, 0.011567679853743277, 1791572038067107555, 
-0.4150136709213257, 0.03986525535583496, -0.007750940667799161, 1791572038097128737, 
-0.15384399890899658, 0.03886973857879639, -0.01657180287187751, 1791572038128314909, 
0.010741353034973145, -0.09602731466293335, -0.015550869807522806, 1791572038158142462, 
0.13495123386383057, 0.0440601110458374, -0.00120697907377866, 1791572038187100555, 
-0.10274440050125122, 0.054284632205963135, 0.003422716816636463, 1791572038220011892, 
-0.44838035106658936, -0.10720705986022949, 0.01242083637880758, 1791572038250811414, 
1.1523711681365967, 0.020638763904571533, 0.0009723349171211988, 1791572038277130630, 
-0.34706711769104004, 0.091591477394104, -0.0190756464834964, 1791572038308053196, 
-0.13653206825256348, -0.3818933367729187, -0.01807490827280637, 1791572038330248880, 
-0.3263418674468994, -0.13692808151245117, 0.02435727712743253, 1791572038368022548, 
0.6230106353759766, 0.117831289768219, 0.017021330552558195, 1791572038398047122, 
-0.352120578289032, 0.10896235704421997, 0.0068482664463955425, 1791572038428275582, 
0.5756045579910278, -0.2244093418121338, 0.006699294092608554, 1791572038459107078, 
-0.04358571767807007, 0.09839141368865967, 0.0013139296054505273, 1791572038491239024, 
-0.2998577356338501, -0.16466569900512695, -0.015139493346541527, 1791572038528087698, 
0.3968632221221924, 0.11550438404083252, 0.006922280320473588, 1791572038558025197, 
-0.5869905948638916, 0.05354839563369751, 0.003267240647831039, 1791572038588032862, 
0.31590360403060913, -0.08869791030883789, -0.01239728893220556, 1791572038620224796, 
-0.3787088990211487, 0.05729043483734131, -0.0008868638741566056, 1791572038650863921, 
0.3648589849472046, -0.14101111888885498, -0.004387802083384007, 1791572038678838474, 
-0.6213458776473999, -0.1214870810508728, 0.0166202957767165, 1791572038708093129, 
0.46419376134872437, 0.027102410793304443, 0.01849599109218256, 1791572038738023072, 
-0.4016677141189575, 0.13968724012374878, -0.013197592960580911, 1791572038768017565, 
-0.21517342329025269, -0.024418354034423828, -0.020921412881897906, 1791572038797053450, 
-0.123870849609375, -0.22292733192443848, -0.01086599536165579, 1791572038828046083, 
0.05250132083892822, 0.36218762397766113, -0.012968701051575863, 1791572038860263801, 
0.23200780153274536, -0.0646594762802124, 0.005357504907829458, 1791572038890878300, 
-0.2326391339302063, 0.03689509630203247, 0.010909584323291335, 1791572038918189276, 
0.15379750728607178, -0.06332296133041382, -0.004116794822879422, 1791572038947016756, 
-0.4521970748901367, 0.142910897731781, -0.007823497025616192, 1791572038977218298, 
0.37486082315444946, -0.08128738403320312, -0.00020215703539760342, 1791572039008018588, 
-0.3353416323661804, 0.006007730960845947, 0.01245969342028037, 1791572039038015565, 
-0.1678767204284668, 0.0219268798828125, -0.0016825082504085013, 1791572039067308937, 
0.6155654191970825, -0.15577024221420288, 0.007971174990560949, 1791572039099125626, 
-0.29373663663864136, 0.07953011989593506, 0.009999989121022592, 1791572039130300842, 
0.09293723106384277, -0.04486972093582153, 0.006993868150456344, 1791572039157132976, 
0.005987226963043213, 0.0877651572227478, 0.01105622345667035, 1791572039186990157, 
-0.0670630931854248, 0.0025091171264648438, 0.003800558541235596, 1791572039216998407, 
-0.016381800174713135, -0.08720749616622925, -0.014221134343331046, 1791572039247207298, 
-0.0019704103469848633, -0.07664328813552856, -0.01263946863857165, 1791572039277032382, 
0.29679107666015625, 0.06979149580001831, 0.016295389639462893, 1791572039307246783, 
-0.4192368984222412, -0.01142352819442749, 0.0139074973329496, 1791572039339100637, 
0.2253238558769226, -0.14283955097198486, 0.004229009397906889, 1791572039371286601, 
-0.24929207563400269, 0.16897040605545044, -0.010243029582948841, 1791572039398073646, 
0.31919538974761963, 0.12529170513153076, -0.030063624756236394, 1791572039428039277, 
-0.06939530372619629, -0.22245913743972778, -0.012456615444948593, 1791572039458510010, 
0.3897252082824707, -0.08674651384353638, 0.03523742907892659, 1791572039488269229, 
-0.1548280119895935, 0.1334151029586792, 0.02886364820859248, 1791572039518215673, 
-0.3668254613876343, -0.0061484575271606445, 0.007389540520251512, 1791572039548052934, 
0.15574979782104492, -0.0994795560836792, 2.0007386770957455e-05, 1791572039580299758, 
-0.622998058795929, 0.21825581789016724, -0.0015355146279189841, 1791572039610552821, 
0.23565751314163208, -0.012938141822814941, -0.0052939947586938645, 1791572039638080355, 
-0.35373401641845703, 0.05761593580245972, 0.036047393105710555, 1791572039668046153, 
0.7753826975822449, 0.08259886503219604, 0.024936061396066165, 1791572039689580019, 
-0.45414483547210693, 0.13633441925048828, 0.004806085563620744, 1791572039718043010, 
0.31646931171417236, -0.2778107523918152, -0.007481277819452157, 1791572039747988195, 
-0.2315695881843567, 0.11808717250823975, 0.004450892680137087, 1791572039770231798, 
-0.22866153717041016, -0.046497642993927, -0.01717621764224343, 1791572039807970475, 
-0.2311568260192871, -0.09432220458984375, -0.009212573676600907, 1791572039838049540, 
0.19209665060043335, 0.02949070930480957, 0.009018515398039485, 1791572039868196455, 
-0.11768263578414917, 0.10675609111785889, 0.009522963101776347, 1791572039900917166, 
-0.3491963744163513, -0.13567709922790527, 0.0038815513966542104, 1791572039930580724, 
-0.1617041826248169, 0.1036909818649292, 0.001583727524157796, 1791572039957102307, 
0.009642422199249268, 0.19679200649261475, -0.022606010171891656, 1791572039987960163, 
-0.45787113904953003, -0.32629626989364624, -0.017863089093425155, 1791572040017952173, 
-0.053051531314849854, -0.08449399471282959, 0.00809300167900346, 1791572040047973978, 
0.050423264503479004, 0.3431699275970459, 0.013044006212682221, 1791572040077119411, 
-0.24922508001327515, -0.06846070289611816, 0.0034568255595838946, 1791572040108055212, 
-0.049580276012420654, -0.16139596700668335, 0.003523262866114582, 1791572040139939679, 
-0.16897237300872803, 0.13115447759628296, -0.005609335192497148, 1791572040170538201, 
0.13353145122528076, 0.10285210609436035, -0.026097736208837485, 1791572040198143587, 
-0.15901625156402588, -0.14383459091186523, -0.0015400958553409133, 1791572040227931320, 
0.19686633348464966, 0.0002683401107788086, 0.02929914482821106, 1791572040257955382, 
-0.49649983644485474, 0.04447537660598755, 0.022476512306256996, 1791572040287970179, 
0.5755161046981812, -0.10626369714736938, 0.014462635802404237, 1791572040317986794, 
-0.2348615527153015, 0.06243401765823364, -0.011001241961775704, 1791572040348397075, 
0.15070372819900513, 0.027637481689453125, -0.0287985208782714, 1791572040380011251, 
-0.12486612796783447, -0.10532385110855103, -0.026105980694174948, 1791572040410072141, 
0.16550517082214355, -0.039594829082489014, 0.005243459006829075, 1791572040437945772, 
-0.08726263046264648, 0.047058284282684326, 0.013933617574219534, 1791572040467957946, 
-0.010525166988372803, -0.06499320268630981, 0.006764697893764035, 1791572040498082186, 
0.5131365060806274, 0.04474526643753052, -0.009077541900193014, 1791572040528016143, 
-0.21646428108215332, 0.04473000764846802, -0.01472333726471178, 1791572040558181000, 
0.2337602972984314, -0.1991862654685974, 0.006429729625864331, 1791572040587953196, 
-0.13865625858306885, -0.09402865171432495, 0.022775752490921466, 1791572040621875891, 
0.5693699717521667, 0.054346680641174316, 0.005663646252962161, 1791572040649120972, 
-0.43167030811309814, 0.10195326805114746, -0.007692929225641068, 1791572040677943264, 
0.4587476849555969, -0.18274354934692383, -0.006089819437626756, 1791572040708007055, 
0.4579322934150696, 0.06658202409744263, -0.010940077149146911, 1791572040738061991, 
-0.4129236936569214, 0.275445818901062, -0.005182883719561416, 1791572040768036571, 
0.13691967725753784, 0.15420883893966675, 0.029264781347113057, 1791572040798249055, 
-0.48131364583969116, -0.03024989366531372, 0.021360548499087594, 1791572040828043756, 
0.2757973074913025, -0.012647390365600586, 0.0052006420279193865, 1791572040860332459, 
-0.4160211682319641, 0.11545246839523315, 0.0008049098838638828, 1791572040890542241, 
0.4088977575302124, -0.02277052402496338, -0.01909954723234011, 1791572040928151151, 
-0.32858163118362427, -0.15617036819458008, -0.005812605542932367, 1791572040957973083, 
0.3120829463005066, -0.033841729164123535, 0.009727496756576085, 1791572040988690166, 
-0.14628756046295166, 0.040554702281951904, -0.004449645504104676, 1791572041020449043, 
0.1399328112602234, 0.05297785997390747, -0.014484020623387602, 1791572041050013640, 
0.2598443627357483, 0.16452693939208984, 0.0018459210513437155, 1791572041087927624, 
0.02522975206375122, 0.05604654550552368, -0.007016474512685963, 1791572041117931926, 
0.10421586036682129, -0.2570510506629944, -0.003436925658693311, 1791572041148004611, 
-0.19206470251083374, 0.05048549175262451, -0.013456081942817558, 1791572041180679972, 
0.41761893033981323, 0.1471085548400879, -0.013364668019294453, 1791572041209912862, 
-0.7814252376556396, -0.25039786100387573, -0.004637966744098352, 1791572041237908880, 
0.3195064067840576, 0.20941275358200073, 0.004255485558983376, 1791572041267880702, 
-0.27193498611450195, -0.0145188570022583, -0.0055642942246418485, 1791572041289912324, 
