acc_x, acc_y, angular_z, stamp, 
0.0026073455810546875, -0.0019399523735046387, -1.3109165035763463e-10, 1791572145173433484, 
0.008120596408843994, 0.0106734037399292, 1.98729702474463e-06, 1791572145203423690, 
0.002785027027130127, -0.010907948017120361, -1.7949513415463529e-10, 1791572145233430170, 
0.027936100959777832, 0.0017357468605041504, -1.4694016153576943e-10, 1791572145265409964, 
-0.01363527774810791, 0.014107167720794678, -9.887426721193368e-11, 1791572145296157751, 
-0.0013206005096435547, -0.0021939873695373535, -5.463329339921509e-11, 1791572145323505762, 
0.005686283111572266, -0.014817297458648682, -1.6781776948925194e-11, 1791572145353409104, 
-0.008817493915557861, -0.014906525611877441, -4.204477224010002e-12, 1791572145376884197, 
-0.012372612953186035, 0.02997535467147827, 1.6327656287317237e-06, 1791572145413389414, 
0.0039052963256835938, -0.00960606336593628, -3.4892091403359816e-12, 1791572145443583427, 
-0.02294820547103882, -0.006129622459411621, 8.779040724548114e-13, 1791572145473633782, 
0.013185083866119385, -0.018590986728668213, 7.140521196886252e-12, 1791572145505739038, 
-0.003063678741455078, -0.009599387645721436, -7.913707830239204e-12, 1791572145536166465, 
0.004287779331207275, 0.0014685392379760742, -2.9673490526415814e-11, 1791572145563480047, 
0.015052199363708496, 0.019311845302581787, -3.344194038568655e-11, 1791572145593483251, 
-0.0007471442222595215, 0.010213792324066162, -9.84947541662356e-12, 1791572145683428142, 
-0.0024494528770446777, 0.040431857109069824, 1.1542734127845308e-12, 1791572145713613716, 
0.0067650675773620605, -0.0046623945236206055, 7.71089163140887e-11, 1791572145745197862, 
0.008673250675201416, -0.0282595157623291, 1.400850796164204e-10, 1791572145776192976, 
-0.007285714149475098, -0.002994835376739502, 1.7278270430993083e-10, 1791572145803479198, 
-0.016019225120544434, -0.004590213298797607, 1.2276748282601986e-10, 1791572145833454653, 
0.01128000020980835, 0.0027944445610046387, 6.639149442969593e-11, 1791572145863406861, 
-0.024571359157562256, -0.004276752471923828, 1.9880691150274883e-06, 1791572145893388138, 
-0.010055780410766602, -0.0038497447967529297, -1.540905001912471e-10, 1791572145922406754, 
-0.002692282199859619, 0.0055991411209106445, -3.467353240859133e-10, 1791572145953559031, 
0.00995248556137085, 0.023845791816711426, -5.042788391339828e-10, 1791572145985235716, 
0.015331745147705078, -0.013681590557098389, 1.9242095722995597e-06, 1791572146016202552, 
0.009946167469024658, 0.018883466720581055, -7.535542851000376e-10, 1791572146042462221, 
-0.004453778266906738, -0.01318901777267456, 1.9925958070199577e-06, 1791572146072364617, 
-0.03658890724182129, 0.006874024868011475, -8.062408449049973e-10, 1791572146102411195, 
-0.011162161827087402, 0.022950053215026855, -8.71754361267679e-10, 1791572146162401937, 
-0.02156597375869751, 0.013744056224822998, 1.879527318199434e-06, 1791572146225091249, 
-0.014147341251373291, -0.015340447425842285, 2.191064347634866e-06, 1791572146283433845, 
-0.014021217823028564, -0.013652026653289795, -4.3158958189967905e-10, 1791572146312395644, 
0.0004241466522216797, -0.0013186931610107422, -3.1608645576108647e-10, 1791572146343444952, 
0.0006241798400878906, 0.034538984298706055, -2.2886810686891215e-10, 1791572146373612933, 
-0.006432831287384033, -0.014341294765472412, 1.998048214203812e-06, 1791572146403443075, 
0.011746406555175781, 0.006984889507293701, 1.2496812153647636e-10, 1791572146433385023, 
-0.0007852315902709961, 0.012081325054168701, 2.040700727365329e-10, 1791572146465777689, 
-0.011243760585784912, -0.002382218837738037, 3.2216575162551296e-10, 1791572146495547023, 
0.023010075092315674, 0.01892775297164917, 4.760655805768399e-10, 1791572146523436878, 
-0.018325209617614746, 0.004279971122741699, 6.059216878528863e-10, 1791572146552396576, 
0.0176239013671875, 0.011446475982666016, 1.923500532146401e-06, 1791572146583394239, 
0.0067906975746154785, -0.0012919306755065918, 6.672922629712935e-10, 1791572146612405144, 
0.0012583732604980469, 0.03256213665008545, 6.989797982390603e-10, 1791572146643482355, 
-0.007869720458984375, -0.016123592853546143, 7.395630311824842e-10, 1791572146673356014, 
0.000886082649230957, -0.01784878969192505, -1.8597636649163015e-06, 1791572146705396079, 
-0.0030264854431152344, -0.025031983852386475, -1.907541439150881e-06, 1791572146736636128, 
0.009493112564086914, 0.023847222328186035, 4.3670759146695927e-10, 1791572146773340471, 
0.00015729665756225586, -0.0030559897422790527, 1.7006897185196193e-10, 1791572146803384955, 
-0.0002390742301940918, -0.00650632381439209, 7.944889429215544e-11, 1791572146833501975, 
-0.002653777599334717, -0.011953115463256836, -1.0780971629191722e-11, 1791572146865193217, 
0.0024855732917785645, 0.018765747547149658, -4.123402792874948e-11, 1791572146895960358, 
0.011205673217773438, -0.011824727058410645, -8.772073760066228e-11, 1791572146923453635, 
-0.0015786290168762207, -0.011752843856811523, -8.233173604733327e-11, 1791572146953346480, 
-0.0016857385635375977, -0.0004974603652954102, -3.955548523074321e-11, 1791572146983384509, 
-0.02169966697692871, 0.021186769008636475, 3.625563527576676e-11, 1791572147013329427, 
0.026762008666992188, 0.014088988304138184, 4.910271798284334e-11, 1791572147043374687, 
0.017578840255737305, -0.011166632175445557, -1.9914724060203186e-06, 1791572147073304109, 
-0.020279765129089355, -0.01854705810546875, -1.7335967236164367e-13, 1791572147105599043, 
0.01029294729232788, 0.02100086212158203, 6.214179334856074e-12, 1791572147135911623, 
-0.00037407875061035156, 0.006525814533233643, -8.475226300114517e-13, 1791572147163452839, 
0.015806138515472412, 0.0011078715324401855, -2.4851148440857734e-11, 1791572147193412234, 
-0.0023614168167114258, -0.006169736385345459, -5.232473401289338e-11, 1791572147223351948, 
-0.01327890157699585, -0.00429081916809082, -4.7121512169954676e-11, 1791572147253313093, 
0.004461884498596191, -0.016818463802337646, -2.4430814019846985e-11, 1791572147283327500, 
0.018786489963531494, 0.022778809070587158, 0.00030407819567504897, 1791572147313318182, 
0.0011892914772033691, 0.006785988807678223, -0.0012980906710926298, 1791572147345276849, 
0.9531465768814087, 0.23275107145309448, 0.03358578858111287, 1791572147375855793, 
1.392093539237976, -0.32748162746429443, 0.1709955810225414, 1791572147403436028, 
0.8817097544670105, 0.5252164006233215, 0.1611673081789555, 1791572147433286591, 
0.5866872072219849, -0.01817762851715088, 0.2193454284364914, 1791572147463299510, 
-0.2622511386871338, -0.3118184804916382, 0.2580155200593617, 1791572147493295566, 
-0.23118889331817627, 0.49766653776168823, 0.24304295818849184, 1791572147523273754, 
-0.0047509074211120605, -0.04170733690261841, 0.22925848305844587, 1791572147553905185, 
-0.2592676877975464, -0.4706435799598694, 0.21613465256713674, 1791572147585307426, 
-0.02076435089111328, 0.22088348865509033, 0.21755656152524175, 1791572147615886931, 
-0.01586174964904785, 0.3656274080276489, 0.2481594472179494, 1791572147643503955, 
0.017690539360046387, 0.026047885417938232, 0.25746628908880914, 1791572147673344737, 
-0.07016545534133911, -0.07944536209106445, 0.2915324919319053, 1791572147703386877, 
0.14628338813781738, -0.09378677606582642, 0.28757395608843206, 1791572147733417295, 
-0.1525593400001526, 0.21435558795928955, 0.2654659369416361, 1791572147763403201, 
0.013422489166259766, 0.2118852138519287, 0.25175137980232043, 1791572147793404871, 
0.17812234163284302, -0.19579321146011353, 0.2504292216013836, 1791572147825222003, 
-0.3115534782409668, 0.04387712478637695, 0.25490653311370315, 1791572147855294484, 
0.011371135711669922, 0.029721379280090332, 0.2713100459981642, 1791572147883278893, 
0.02108895778656006, -0.05501943826675415, 0.24837007560187116, 1791572147913239254, 
0.028402209281921387, 0.18994343280792236, 0.24305652085318483, 1791572147943268438, 
0.05463474988937378, -0.03981596231460571, 0.2559577991851672, 1791572147973295617, 
0.10553628206253052, -0.14687347412109375, 0.2501149126209004, 1791572148003291103, 
-0.26661449670791626, 0.09429317712783813, 0.25556105188589257, 1791572148033288575, 
-0.040143489837646484, 0.0752795934677124, 0.23004965643519845, 1791572148066452987, 
-0.006749570369720459, -0.10458528995513916, 0.29016892735315586, 1791572148095570837, 
-0.11572688817977905, 0.33348923921585083, 0.31223054403682665, 1791572148123258523, 
0.20574450492858887, 0.005533337593078613, 0.2650299628517487, 1791572148153245835, 
-0.07599163055419922, -0.29913991689682007, 0.2590809156439255, 1791572148183285564, 
0.2586972117424011, 0.14976459741592407, 0.2684491265500782, 1791572148213258779, 
0.2700403332710266, 0.14584732055664062, 0.23701942341056473, 1791572148243322025, 
-0.2666202187538147, -0.09785807132720947, 0.22107480137700458, 1791572148273489466, 
-0.2529623508453369, 0.2481323480606079, 0.22499902919528364, 1791572148305319624, 
0.30317920446395874, -0.05819594860076904, 0.27885004018261333, 1791572148335192076, 
-0.42522722482681274, -0.17889028787612915, 0.31500660138049913, 1791572148363246874, 
0.33633023500442505, 0.11249762773513794, 0.2762882780368606, 1791572148393284471, 
-0.24430638551712036, 0.05212360620498657, 0.2358017660408167, 1791572148423271133, 
0.28486067056655884, 0.06005829572677612, 0.22323290776039115, 1791572148453263495, 
-0.1672520637512207, 0.22827833890914917, 0.24402457583170983, 1791572148483255109, 
0.2909087538719177, -0.14657855033874512, 0.2481002207006616, 1791572148514031766, 
-0.3283073306083679, -0.1829376220703125, 0.250386574106692, 1791572148545375144, 
0.10508847236633301, 0.21019071340560913, 0.2692073923587453, 1791572148575200823, 
0.03579527139663696, 0.09786063432693481, 0.26816593138398975, 1791572148603289946, 
-0.35448944568634033, 0.08877068758010864, 0.2553233529492721, 1791572148633253866, 
0.08799594640731812, -0.08349889516830444, 0.27822635228543285, 1791572148663250468, 
0.07722032070159912, -0.1549202799797058, 0.26148084812125555, 1791572148693285748, 
0.06102311611175537, 0.10126364231109619, 0.2373647387107141, 1791572148723215053, 
-0.13994163274765015, 0.3035714626312256, 0.23718478022517334, 1791572148753284396, 
-0.049867987632751465, -0.07137805223464966, 0.23304337971236044, 1791572148785513990, 
-0.09916317462921143, -0.0048944950103759766, 0.27932692110631735, 1791572148815147772, 
0.052702486515045166, -0.030626773834228516, 0.30693661716111204, 1791572148843280957, 
0.12394297122955322, -0.12843453884124756, 0.2554506386148339, 1791572148873259031, 
-0.18052440881729126, 0.38359659910202026, 0.24038874761140858, 1791572148903252276, 
0.0768921971321106, -0.021991491317749023, 0.25553223335462893, 1791572148933221348, 
-0.006071925163269043, -0.11872142553329468, 0.2451779577357858, 1791572148963219136, 
0.06680887937545776, 0.058291852474212646, 0.25236758297532413, 1791572148993340045, 
0.16710835695266724, -0.04280036687850952, 0.2309639975613764, 1791572149025646526, 
-0.26828527450561523, -0.029275894165039062, 0.21831512688667776, 1791572149055464421, 
0.0650855302810669, 0.24081569910049438, 0.26313373244303195, 1791572149083332046, 
0.0734742283821106, 0.0727541446685791, 0.2838013464591294, 1791572149113242021, 
0.07101643085479736, -0.09945052862167358, 0.26964909131912274, 1791572149143234035, 
0.048662781715393066, -0.006211459636688232, 0.2459398612557926, 1791572149173244144, 
-0.29064786434173584, 0.027539432048797607, 0.23371009359972053, 1791572149203225807, 
-0.005234181880950928, 0.1781076192855835, 0.22943705953287763, 1791572149233366045, 
-0.2421693205833435, 0.12455165386199951, 0.230066115789685, 1791572149265494834, 
0.05475020408630371, -0.16392618417739868, 0.24745060306833164, 1791572149295245083, 
0.050328969955444336, 0.010165929794311523, 0.26168762303596793, 1791572149323248069, 
0.15777891874313354, 0.23921442031860352, 0.2411001736048731, 1791572149353183683, 
0.02694380283355713, -0.06267428398132324, 0.23991723148802765, 1791572149383228501, 
-0.05637848377227783, 0.009067356586456299, 0.2562261535875395, 1791572149413212762, 
-0.03581953048706055, 0.15036344528198242, 0.26952686449120267, 1791572149443264161, 
0.05664050579071045, -0.09652382135391235, 0.26707280831797364, 1791572149473794461, 
0.028586983680725098, -0.0048094987869262695, 0.24592721255151218, 1791572149505444204, 
0.036853015422821045, 0.134263813495636, 0.2549996554826117, 1791572149535254881, 
0.16624271869659424, -0.06825524568557739, 0.267911296843951, 1791572149563196726, 
-0.2661866545677185, 0.02268737554550171, 0.24279785981330834, 1791572149593229756, 
-0.027096033096313477, -0.05866861343383789, 0.24144777147463392, 1791572149623211154, 
0.08504682779312134, -0.13719403743743896, 0.24686725639876958, 1791572149653253273, 
-0.2714105248451233, 0.3192419409751892, 0.25130599446981666, 1791572149683221694, 
0.26304805278778076, 0.038133323192596436, 0.24748344143718534, 1791572149713559534, 
-0.11988484859466553, -0.13734161853790283, 0.2377539752351372, 1791572149745615123, 
0.340165376663208, 0.10581827163696289, 0.2773223959019007, 1791572149775296428, 
-0.10319143533706665, -0.05957686901092529, 0.2876407539303703, 1791572149803183761, 
-0.2214321494102478, -0.04406750202178955, 0.24551676481666082, 1791572149833196273, 
-0.1720675826072693, 0.157867431640625, 0.22365144896703876, 1791572149855293104, 
0.3226168751716614, 0.04527312517166138, 0.2588587107771648, 1791572149883191641, 
-0.45113110542297363, -0.12072116136550903, 0.23536900496156904, 1791572149913183811, 
0.2092818021774292, 0.0193631649017334, 0.2484276454716916, 1791572149943195464, 
-0.0899772047996521, 0.11331981420516968, 0.25415540066175807, 1791572149973185812, 
0.22658395767211914, -0.18158751726150513, 0.24248813362644384, 1791572150003179517, 
-0.21092188358306885, 0.24540984630584717, 0.2510175896186703, 1791572150033447565, 
0.1658915877342224, 0.05651730298995972, 0.23088553407190593, 1791572150065423167, 
-0.2278684377670288, -0.26005738973617554, 0.23738242160433912, 1791572150095301778, 
-0.013978302478790283, -0.037522196769714355, 0.26028368672463753, 1791572150123196165, 
-0.020287394523620605, 0.14047527313232422, 0.255019030590905, 1791572150153179870, 
-0.12036669254302979, 0.06166231632232666, 0.235666309222667, 1791572150183194754, 
-0.05796235799789429, 0.22073006629943848, 0.23837605150977578, 1791572150213157665, 
0.10390323400497437, -0.04576098918914795, 0.26201943767282937, 1791572150243213235, 
0.14133387804031372, -0.2883474826812744, 0.26616319113505343, 1791572150273442569, 
0.10123151540756226, 0.16087311506271362, 0.23805443972343965, 1791572150306049759, 
-0.19954758882522583, 0.23392975330352783, 0.27342302753761205, 1791572150333234533, 
-0.21810340881347656, -0.11685353517532349, 0.23940601870045067, 1791572150363249737, 
0.033144593238830566, 0.17150825262069702, 0.2497294491242062, 1791572150393285098, 
-0.08473509550094604, -0.1870763897895813, 0.28103196032062383, 1791572150423278155, 
-0.1783989667892456, 0.177717924118042, 0.26616823928464883, 1791572150453203206, 
0.2123790979385376, 0.20342886447906494, 0.2436858554430627, 1791572150483174392, 
-0.05358576774597168, -0.03994953632354736, 0.2201756362750576, 1791572150513540145, 
0.2142309546470642, -0.013003110885620117, 0.21979996772529445, 1791572150545449350, 
-0.062258005142211914, 0.02772235870361328, 0.3085821971993069, 1791572150573219249, 
-0.2596586346626282, 0.14137345552444458, 0.27471185611386234, 1791572150603138755, 
0.13511157035827637, 0.1271492838859558, 0.24903187538425411, 1791572150632123722, 
0.008812367916107178, -0.06204116344451904, 0.25716481962888554, 1791572150663175646, 
-0.2009837031364441, 0.0021642446517944336, 0.25412536716922535, 1791572150693216798, 
0.12522977590560913, 0.012346267700195312, 0.2510494968101117, 1791572150723148499, 
-0.558927595615387, 0.05172079801559448, 0.2627513577359875, 1791572150754151665, 
0.3321549892425537, -0.0021924972534179688, 0.2369057695433907, 1791572150785669904, 
-0.244625985622406, 0.2184177041053772, 0.2602464794537565, 1791572150813212577, 
0.1089935302734375, -0.015107333660125732, 0.26264284560737794, 1791572150843163078, 
-0.19366931915283203, -0.18516135215759277, 0.263543880992543, 1791572150873144615, 
0.1353190541267395, 0.03907012939453125, 0.2555278584588245, 1791572150903178181, 
-0.09403753280639648, 0.18615490198135376, 0.24851905625467033, 1791572150933148832, 
-0.10272425413131714, -0.01791834831237793, 0.252560875548359, 1791572150963169896, 
-0.1452465057373047, 0.1010856032371521, 0.2573206155427332, 1791572150993441993, 
-0.08259552717208862, -0.07719624042510986, 0.2504518239122532, 1791572151025400047, 
0.1679033637046814, -0.16698288917541504, 0.28192395913948576, 1791572151053260528, 
0.1948602795600891, 0.21352773904800415, 0.25920361454806384, 1791572151083164701, 
0.019564151763916016, 0.09576719999313354, 0.23673695265234057, 1791572151113137338, 
-0.15460139513015747, -0.12255877256393433, 0.234081490939075, 1791572151143193655, 
-0.07609981298446655, 0.18042242527008057, 0.261214603618294, 1791572151173138758, 
0.09455907344818115, -0.1446847915649414, 0.2679224437016979, 1791572151203161655, 
-0.24602460861206055, -0.2090584635734558, 0.2512425509639952, 1791572151233477971, 
0.15046453475952148, 0.26782286167144775, 0.2356873816798703, 1791572151265796964, 
-0.21503329277038574, 0.1386638879776001, 0.2772744393123328, 1791572151293224366, 
0.3003159165382385, -0.08618766069412231, 0.261316335618175, 1791572151323147465, 
-0.16621392965316772, -0.02192866802215576, 0.2562722852364983, 1791572151353138481, 
-0.13905692100524902, -0.019714057445526123, 0.24324987314645816, 1791572151383149062, 
0.09326303005218506, 0.031557679176330566, 0.23282168623783772, 1791572151413093066, 
0.27364403009414673, 0.3261978030204773, 0.23468618509259143, 1791572151442130433, 
-0.4218176603317261, -0.0943002700805664, 0.23054427465193447, 1791572151473689576, 
0.1296810507774353, -0.11055439710617065, 0.24293627279603758, 1791572151505622920, 
-0.40740710496902466, 0.0025470852851867676, 0.29892186759549116, 1791572151533198386, 
0.22526830434799194, -0.016334056854248047, 0.25807151079168467, 1791572151563159026, 
-0.22844237089157104, 0.126165509223938, 0.2585174747724658, 1791572151593159434, 
0.05019521713256836, 0.13642895221710205, 0.2507604958632567, 1791572151623177291, 
-0.12002098560333252, -0.10601794719696045, 0.24989954609092907, 1791572151652137270, 
0.031790971755981445, -0.055685341358184814, 0.24727759723113238, 1791572151683156513, 
0.08361697196960449, 0.11664032936096191, 0.2504720131240747, 1791572151713118712, 
0.005922853946685791, -0.15803587436676025, 0.22065566005063067, 1791572151745389752, 
-0.1674046516418457, 0.2768360376358032, 0.2814552893300145, 1791572151773260657, 
-0.08276504278182983, 0.09280931949615479, 0.2878916866112541, 1791572151802137123, 
0.0841483473777771, -0.22006183862686157, 0.26817707089479886, 1791572151832121436, 
0.05266767740249634, -0.025040388107299805, 0.2475172189000682, 1791572151863162636, 
0.06672221422195435, 0.0851941704750061, 0.24276349285460422, 1791572151893151200, 
-0.18519288301467896, 0.13469970226287842, 0.23460900981255364, 1791572151922125315, 
-0.17458218336105347, 0.18717581033706665, 0.2158246061872697, 1791572151953533259, 
0.03407394886016846, -0.210926353931427, 0.22985964450352697, 1791572151986006521, 
-0.1981334090232849, -0.23142927885055542, 0.29238945047537657, 1791572152013154770, 
0.19637370109558105, 0.34991729259490967, 0.2818967517152212, 1791572152042101260, 
-0.37160199880599976, 0.19811958074569702, 0.24595690062977738, 1791572152073085080, 
0.40689152479171753, -0.1864403486251831, 0.24299746269379405, 1791572152102116649, 
-0.13753283023834229, 0.11624938249588013, 0.2483345477867975, 1791572152132111981, 
-0.24021410942077637, -0.05542963743209839, 0.2478226808810931, 1791572152163137752, 
0.11996489763259888, -0.06271147727966309, 0.23192818624512604, 1791572152193902517, 
-0.2312975525856018, 0.44523102045059204, 0.22065495028049126, 1791572152225854241, 
0.06358373165130615, -0.11505007743835449, 0.281718636006826, 1791572152252116473, 
-0.02266901731491089, -0.04489707946777344, 0.258698881188907, 1791572152283064942, 
-0.003139197826385498, 0.1946379542350769, 0.30256591411926104, 1791572152312099430, 
0.22203505039215088, -0.09591519832611084, 0.241360206375185, 1791572152343159511, 
-0.368624210357666, -0.0414654016494751, 0.22984643193639903, 1791572152372108902, 
0.05604344606399536, 0.39142608642578125, 0.22532026343570496, 1791572152403076259, 
0.06920725107192993, 0.023436009883880615, 0.246705696788492, 1791572152434561453, 
0.1479361653327942, -0.063448965549469, 0.25177510410193216, 1791572152465568262, 
-0.15733551979064941, 0.025276899337768555, 0.2942081534868818, 1791572152493148660, 
0.1311047077178955, 0.01689445972442627, 0.2490110575542737, 1791572152523058531, 
-0.3069427013397217, 0.17691785097122192, 0.2631434197527661, 1791572152552107819, 
0.04209345579147339, -0.023942232131958008, 0.26160346097083836, 1791572152583091881, 
-0.09907299280166626, -0.10544383525848389, 0.2607097927198223, 1791572152613068664, 
0.1698119044303894, 0.04605579376220703, 0.26698164964579724, 1791572152642108035, 
0.09595328569412231, 0.04503011703491211, 0.23612675422374324, 1791572152673895910, 
-0.018297016620635986, 0.005694448947906494, 0.22605064769052682, 1791572152705562167, 
-0.21767407655715942, 0.15691542625427246, 0.27651244126500923, 1791572152732126805, 
-0.07596182823181152, -0.08109593391418457, 0.21899223970362014, 1791572152763082349, 
-0.3670541048049927, -0.26749706268310547, 0.2287011465943288, 1791572152792106391, 
0.015145182609558105, 0.26714396476745605, 0.24411283579279974, 1791572152823082245, 
-0.1871050000190735, 0.21322637796401978, 0.2563484261053401, 1791572152853078778, 
0.3526197075843811, -0.24587225914001465, 0.24303045333697323, 1791572152883035533, 
-0.15468037128448486, 0.09629660844802856, 0.25157428791284747, 1791572152913556031, 
-0.19626808166503906, 0.13216131925582886, 0.2275066511648822, 1791572152945497038, 
-0.09148204326629639, -0.14556127786636353, 0.2728014065104593, 1791572152972106731, 
-0.09097439050674438, 0.2796596884727478, 0.2454685351943402, 1791572153003071280, 
0.0875781774520874, 0.1071816086769104, 0.24678224029866078, 1791572153033074592, 
0.0712166428565979, -0.1060134768486023, 0.24441794084573576, 1791572153063131580, 
-0.019971191883087158, 0.17328810691833496, 0.2417097842800464, 1791572153093343467, 
-0.16622155904769897, -0.06469166278839111, 0.2400286121901497, 1791572153123395701, 
0.07317298650741577, 0.0815267562866211, 0.2441485635731718, 1791572153153569042, 
-0.05375856161117554, 0.30827760696411133, 0.2310797384867663, 1791572153186024147, 
0.1298384666442871, -0.05959677696228027, 0.27453201543130457, 1791572153212113241, 
0.01336580514907837, -0.00772404670715332, 0.23922690047696676, 1791572153243070465, 
-0.11309987306594849, 0.0485575795173645, 0.2642867794515761, 1791572153273052514, 
-0.004350244998931885, 0.03367877006530762, 0.24683294860304494, 1791572153303049683, 
-0.12651920318603516, 0.1218729019165039, 0.24662749568414943, 1791572153333027916, 
-0.10328638553619385, 0.18030869960784912, 0.2586296135252665, 1791572153363063429, 
-0.1774812936782837, -0.08440136909484863, 0.2577191287558642, 1791572153393556801, 
0.06376123428344727, -0.10838854312896729, 0.2591300706883755, 1791572153425728429, 
0.125474214553833, 0.07152289152145386, 0.2937959315948579, 1791572153452115580, 
-0.003893733024597168, -0.02644801139831543, 0.22810265998360968, 1791572153483023413, 
-0.01602095365524292, 0.24383187294006348, 0.25056747190706613, 1791572153513009552, 
-0.007711291313171387, 0.13176220655441284, 0.2625571144468944, 1791572153543050182, 
-0.172260582447052, -0.28288131952285767, 0.26110835987253944, 1791572153573041372, 
0.17338353395462036, -0.008163094520568848, 0.2678474349889364, 1791572153603368773, 
-0.44464850425720215, 0.23969626426696777, 0.2661327580316894, 1791572153633970726, 
0.591560423374176, 0.023395955562591553, 0.22209032669451573, 1791572153665793270, 
-0.16968852281570435, 0.08159220218658447, 0.23983038002430443, 1791572153693155826, 
-0.2501004934310913, -0.11481159925460815, 0.21028281057383064, 1791572153723011982, 
0.13125723600387573, -0.22066617012023926, 0.24682131157248224, 1791572153753035067, 
-0.10235130786895752, 0.3823104500770569, 0.2856028336269145, 1791572153783070734, 
-0.2416200041770935, 0.12030422687530518, 0.2914232641693123, 1791572153812097329, 
0.1918599009513855, -0.10790592432022095, 0.22439812613298268, 1791572153843070077, 
-0.06640523672103882, 0.033625245094299316, 0.2192299362692625, 1791572153873522707, 
-0.11263340711593628, -0.18412673473358154, 0.25025402216004244, 1791572153905622210, 
-0.10265219211578369, 0.22134065628051758, 0.28176768023409854, 1791572153933075257, 
-0.01295560598373413, 0.27770811319351196, 0.24392548353620272, 1791572153963023334, 
0.022508680820465088, -0.18970131874084473, 0.23871867750331832, 1791572153993087853, 
0.18543213605880737, -0.10047709941864014, 0.2446650410544894, 1791572154023053394, 
0.006571471691131592, 0.30200839042663574, 0.27083517600316886, 1791572154053037216, 
-0.12400394678115845, -0.10652703046798706, 0.2692243493796448, 1791572154083042006, 
-0.14335107803344727, -0.05138427019119263, 0.23518761507149555, 1791572154113955909, 
-0.05462604761123657, 0.3161594867706299, 0.2387165492010827, 1791572154146002559, 
-0.0036539435386657715, -0.00823819637298584, 0.28001424061299357, 1791572154183036414, 
0.21475058794021606, -0.07474201917648315, 0.25672472667890106, 1791572154213031287, 
-0.18426525592803955, 0.048356831073760986, 0.27312251660574416, 1791572154242999711, 
0.17024356126785278, 0.12451356649398804, 0.23696829071424066, 1791572154273980645, 
-0.012644708156585693, 0.15012162923812866, 0.2189381957970955, 1791572154305557392, 
-0.07276827096939087, 0.015671491622924805, 0.27440311283118246, 1791572154333058440, 
0.089663565158844, -0.12686872482299805, 0.2565166569068714, 1791572154362994147, 
-0.12198513746261597, 0.0481642484664917, 0.2696493922673371, 1791572154393140486, 
-0.15031903982162476, 0.12607181072235107, 0.2774030739721077, 1791572154423058214, 
-0.24307578802108765, 0.0432242751121521, 0.2732554843220928, 1791572154452130539, 
-0.0911666750907898, 0.23776042461395264, 0.27299403437388536, 1791572154482099029, 
-0.11985629796981812, -0.1018570065498352, 0.2603321993938377, 1791572154513668401, 
0.016152799129486084, -0.095980703830719, 0.2400178867979862, 1791572154545647047, 
0.16728001832962036, 0.17907041311264038, 0.25117968474239, 1791572154583020285, 
0.02503734827041626, 0.056060791015625, 0.22249879784420612, 1791572154613002320, 
0.07462459802627563, 0.05735057592391968, 0.2354448837989225, 1791572154643017614, 
-0.1578875184059143, -0.029785096645355225, 0.24410768957988996, 1791572154673862769, 
-0.1434597373008728, 0.003790140151977539, 0.2360436173330336, 1791572154705996922, 
0.03159129619598389, 0.23275965452194214, 0.2735347480970974, 1791572154733046186, 
-0.04792386293411255, -0.014655232429504395, 0.26265009312178283, 1791572154762983333, 
0.21219444274902344, -0.10583561658859253, 0.2730595364923353, 1791572154793018022, 
-0.14466238021850586, 0.18405205011367798, 0.26204582806720905, 1791572154823058851, 
-0.04557311534881592, -0.12698894739151, 0.2490653847103522, 1791572154853023550, 
-0.07908862829208374, -0.11893892288208008, 0.2296743025918225, 1791572154883024107, 
0.00150221586227417, 0.2686234712600708, 0.22080723310944758, 1791572154914351724, 
-0.20576661825180054, 0.04978698492050171, 0.2298458223008388, 1791572154945751186, 
0.07227146625518799, -0.1023896336555481, 0.28086279127015595, 1791572154973014382, 
0.08969974517822266, 0.08818316459655762, 0.2814084094911548, 1791572155002976434, 
0.07258617877960205, -0.06092125177383423, 0.25206408013768367, 1791572155032993534, 
-0.033733248710632324, -0.03784698247909546, 0.23098985435899752, 1791572155063036046, 
-0.08624875545501709, 0.34804147481918335, 0.23806263048627993, 1791572155093019030, 
-0.38887864351272583, -0.0641205906867981, 0.24421143641151288, 1791572155122980303, 
0.18916022777557373, -0.1721811294555664, 0.24061988390882336, 1791572155153714375, 
-0.46990764141082764, 0.12029558420181274, 0.26344487873674194, 1791572155185703306, 
0.6484907865524292, 0.05634331703186035, 0.2842841526596006, 1791572155213025483, 
-0.3536718487739563, -0.04928630590438843, 0.2469979653893427, 1791572155243005622, 
-0.07324481010437012, 0.16149145364761353, 0.2657435627659522, 1791572155272994683, 
0.035193562507629395, -0.0008519291877746582, 0.26691679161041554, 1791572155302988913, 
0.11834925413131714, -0.1476438045501709, 0.2578303399268852, 1791572155332976579, 
-0.044702231884002686, 0.27434462308883667, 0.25321800516342646, 1791572155362976927, 
-0.15075743198394775, 0.11390990018844604, 0.24035767351141288, 1791572155393718276, 
0.09171998500823975, -0.07553452253341675, 0.21972868348539273, 1791572155426079808, 
-0.11631828546524048, 0.22602635622024536, 0.27017095790450024, 1791572155453077117, 
0.1914321780204773, -0.09107577800750732, 0.263405273519211, 1791572155482976170, 
-0.08624058961868286, -0.161116361618042, 0.24312450560698184, 1791572155512969158, 
-0.021650969982147217, 0.2704430818557739, 0.24988397050136477, 1791572155542965889, 
0.06911945343017578, 0.1241503357887268, 0.2528478592656068, 1791572155572915064, 
-0.07741403579711914, 0.05398494005203247, 0.23730809037887443, 1791572155602922936, 
-0.0891953706741333, -0.10749375820159912, 0.2441837884334652, 1791572155633707172, 
-0.07253772020339966, -0.09488898515701294, 0.23170028192859424, 1791572155665678802, 
-0.21003174781799316, 0.3313232660293579, 0.2634434718264636, 1791572155693069386, 
-0.12828117609024048, 0.21105587482452393, 0.26199686979975023, 1791572155722982168, 
0.11466246843338013, -0.15211009979248047, 0.25027445650902014, 1791572155753063999, 
0.09220552444458008, 0.015935301780700684, 0.25620764970172416, 1791572155783031547, 
0.02757084369659424, 0.03165614604949951, 0.2738335706528314, 1791572155813081523, 
0.20095205307006836, 0.08343362808227539, 0.25540044190077116, 1791572155843066984, 
0.0313226580619812, 0.3174688220024109, 0.23302315213884542, 1791572155873141330, 
0.0541035532951355, -0.14725303649902344, 0.21715950884524926, 1791572155905879316, 
0.028035998344421387, -0.14892756938934326, 0.2608927835082024, 1791572155932994932, 
-0.2923312783241272, 0.24707138538360596, 0.2534935369319104, 1791572155962886764, 
0.41925865411758423, 0.08189928531646729, 0.26526355010715913, 1791572155992920532, 
-0.4299350380897522, -0.019136488437652588, 0.23743643379564056, 1791572156022927683, 
-0.04971271753311157, 0.15442109107971191, 0.2275900457387801, 1791572156052911249, 
0.40023040771484375, -0.09818130731582642, 0.258294492283382, 1791572156082979214, 
-0.36693722009658813, -0.15469884872436523, 0.2687714091066002, 1791572156113871587, 
0.19931668043136597, 0.1783236265182495, 0.2554529316962975, 1791572156145772149, 
-0.42083001136779785, 0.022582709789276123, 0.24983449030649058, 1791572156182910067, 
0.2238665223121643, 0.04117631912231445, 0.23615865364409158, 1791572156212891190, 
-0.305847704410553, 0.013494610786437988, 0.2599340206900088, 1791572156241914415, 
-0.04435807466506958, -0.13473302125930786, 0.22860682506936403, 1791572156273899355, 
-0.07039105892181396, 0.2248554229736328, 0.2463728094773095, 1791572156305644656, 
0.20572680234909058, 0.19724249839782715, 0.2889098398537895, 1791572156332996475, 
0.10872507095336914, -0.203874409198761, 0.2623777974317431, 1791572156361895984, 
-0.11673623323440552, 0.06950736045837402, 0.24234727670475043, 1791572156392907912, 
-0.09011536836624146, 0.015665054321289062, 0.2570930483550799, 1791572156421896475, 
-0.06541335582733154, -0.08296608924865723, 0.24371707887713973, 1791572156452883164, 
0.19600951671600342, 0.25050240755081177, 0.2673643525872944, 1791572156481904824, 
0.027483880519866943, 0.06317412853240967, 0.23691992834569048, 1791572156513271402, 
0.11222761869430542, -0.10901546478271484, 0.22764157367667776, 1791572156545947165, 
-0.18386411666870117, 0.10646051168441772, 0.2916211257309767, 1791572156572970898, 
-0.008517801761627197, -0.08429986238479614, 0.26089530662189186, 1791572156602854118, 
0.22182494401931763, -0.11850887537002563, 0.25388496672607863, 1791572156631878223, 
-0.246207594871521, 0.39673298597335815, 0.2272480704504053, 1791572156662893569, 
0.024679601192474365, -0.06217867136001587, 0.2427546115800131, 1791572156691933608, 
-0.2833147644996643, -0.2099328637123108, 0.2433003621834978, 1791572156722883281, 
0.17013198137283325, 0.1812095046043396, 0.2708846630461522, 1791572156753785375, 
-0.14618349075317383, 0.10396641492843628, 0.25052847626998026, 1791572156785693276, 
-0.06561946868896484, -0.03251016139984131, 0.26836781093130313, 1791572156812914193, 
-0.09361594915390015, 0.31984585523605347, 0.2312821886659693, 1791572156842868196, 
0.24712234735488892, -0.05205029249191284, 0.21891378858322877, 1791572156872859327, 
-0.4336389899253845, -0.25706732273101807, 0.23971707291060138, 1791572156902918033, 
0.3262503743171692, 0.26163017749786377, 0.2539967296142544, 1791572156932886854, 
-0.4064362645149231, 0.2568585276603699, 0.24499705602742197, 1791572156962880667, 
0.22569423913955688, -0.1177361011505127, 0.23606524049318445, 1791572156993848195, 
-0.244704008102417, 0.08258563280105591, 0.23562326417510346, 1791572157026313766, 
-0.10660052299499512, -0.1631055474281311, 0.2904453808568647, 1791572157052951075, 
-0.1691356897354126, -0.02263551950454712, 0.2604151874840395, 1791572157082861314, 
0.16429764032363892, 0.2956191897392273, 0.254049536684014, 1791572157112938348, 
0.05576425790786743, -0.1288166642189026, 0.23041543799089162, 1791572157143152854, 
-0.10858052968978882, 0.14941304922103882, 0.23271641057149126, 1791572157172949399, 
-0.12991434335708618, -0.04423767328262329, 0.2479940784221205, 1791572157202873106, 
0.012552976608276367, -0.14453411102294922, 0.24788051028451702, 1791572157233823024, 
0.03451281785964966, 0.3722264766693115, 0.24719467268962048, 1791572157265658433, 
-0.03704833984375, 0.07301723957061768, 0.3053163357178727, 1791572157292945365, 
0.12713879346847534, -0.10155850648880005, 0.2515259442128145, 1791572157322876057, 
-0.125171959400177, 0.18906384706497192, 0.2384020244834482, 1791572157352902972, 
-0.12091642618179321, -0.14430874586105347, 0.26618580450254703, 1791572157382878019, 
0.0729629397392273, -0.010922372341156006, 0.2693766591980111, 1791572157412893212, 
-0.2974679470062256, 0.450383722782135, 0.25140039349416116, 1791572157442847911, 
0.18380802869796753, -0.08531194925308228, 0.22328363545514618, 1791572157474818894, 
-0.34375953674316406, -0.2109743356704712, 0.21567471113037462, 1791572157505834335, 
0.23592782020568848, 0.12836891412734985, 0.2693904222766588, 1791572157532881338, 
-0.21488869190216064, 0.030528724193572998, 0.2892039638766521, 1791572157562848305, 
-0.20081406831741333, -0.022419095039367676, 0.27987580569705517, 1791572157592888660, 
0.001677095890045166, 0.18330717086791992, 0.25282009834591307, 1791572157622842691, 
-0.018608510494232178, 0.002116680145263672, 0.2289246945111031, 1791572157652828521, 
0.13744443655014038, -0.1452564001083374, 0.24873989964434107, 1791572157682795314, 
0.012446880340576172, 0.18624341487884521, 0.2613437070790698, 1791572157714344878, 
-0.05868619680404663, 0.1861492395401001, 0.24699150466637745, 1791572157746052231, 
0.02303469181060791, -0.06903284788131714, 0.24857572114009796, 1791572157772921524, 
-0.22495204210281372, 0.08419930934906006, 0.22306438136236875, 1791572157802869044, 
0.08145380020141602, 0.030490219593048096, 0.23655725889782586, 1791572157832814581, 
-0.07064938545227051, -0.007187783718109131, 0.2556991641121806, 1791572157862837454, 
0.11807745695114136, 0.2327154278755188, 0.2661417594333997, 1791572157892834703, 
-0.07590305805206299, 0.025783419609069824, 0.2639929249133595, 1791572157923330916, 
-0.0250740647315979, -0.005276083946228027, 0.25601564898852436, 1791572157953903596, 
-0.14803439378738403, 0.07484996318817139, 0.2356385716805169, 1791572157986387703, 
0.05745255947113037, -0.09656518697738647, 0.2658319096252859, 1791572158012890377, 
-0.11606568098068237, 0.05437755584716797, 0.24695886335092188, 1791572158042826596, 
0.070240318775177, 0.24887818098068237, 0.25722119545901834, 1791572158072820022, 
0.12220603227615356, 0.01068413257598877, 0.24957588116088666, 1791572158102814802, 
-0.10315972566604614, 0.024442732334136963, 0.27088141869781046, 1791572158132102275, 
-0.060342490673065186, 0.039386212825775146, 0.2693451465165015, 1791572158162836823, 
0.08004873991012573, -0.11814242601394653, 0.24405956999824444, 1791572158194448440, 
-0.23817187547683716, 0.12175309658050537, 0.2340266959815297, 1791572158225718213, 
0.0167539119720459, 0.13291651010513306, 0.26742204146081006, 1791572158252891231, 
-0.3663899898529053, -0.09910309314727783, 0.23886617863436507, 1791572158282777362, 
0.23776382207870483, 0.032450318336486816, 0.2461855453410824, 1791572158312797429, 
-0.23430395126342773, 0.0562707781791687, 0.27347484778732306, 1791572158342830747, 
-0.07505613565444946, 0.008737146854400635, 0.26149760210412204, 1791572158372821005, 
0.010091423988342285, 0.20374631881713867, 0.23436487605645806, 1791572158402870578, 
0.1707490086555481, 0.0046811699867248535, 0.2249790859653741, 1791572158434474611, 
0.08291935920715332, -0.05317270755767822, 0.24100530315609742, 1791572158465711275, 
-0.007650911808013916, 0.2210044264793396, 0.28542916825458353, 1791572158493153398, 
0.005612432956695557, -0.07656055688858032, 0.24463341907348785, 1791572158522835027, 
-0.1884779930114746, -0.03816938400268555, 0.24329978886509, 1791572158552801065, 
0.059662580490112305, 0.26457488536834717, 0.2696106084320566, 1791572158582842919, 
-0.3024864196777344, 0.007551670074462891, 0.25822006927492147, 1791572158612822317, 
0.03712981939315796, -0.048368215560913086, 0.2524192384183961, 1791572158642834248, 
0.20918232202529907, 0.12169218063354492, 0.2406314576194614, 1791572158673922014, 
-0.10978525876998901, 0.0037029385566711426, 0.20475589129727562, 1791572158706322979, 
-0.14018917083740234, 0.060948848724365234, 0.26693681148943615, 1791572158732830603, 
0.05466187000274658, 0.2009817361831665, 0.250025860083792, 1791572158762797229, 
-0.06415092945098877, -0.008468329906463623, 0.20891800838875457, 1791572158786293094, 
0.0034772753715515137, -0.20685505867004395, 0.2837746121761983, 1791572158812874030, 
-0.0511479377746582, 0.20316189527511597, 0.2513473230897676, 1791572158842820364, 
0.029788970947265625, 0.06171375513076782, 0.24955358877915038, 1791572158872751988, 
-0.1386176347732544, -0.013975739479064941, 0.24475410842478293, 1791572158902788294, 
-0.07609057426452637, 0.19616061449050903, 0.25213673442587775, 1791572158932752743, 
0.04801839590072632, -0.10107606649398804, 0.25802915780717445, 1791572158962799526, 
-0.2935376763343811, -0.18330568075180054, 0.2452830327877223, 1791572158993853343, 
0.08017241954803467, 0.34498482942581177, 0.24070731121582822, 1791572159025752517, 
-0.38252389430999756, 0.18099111318588257, 0.28031135382688416, 1791572159052880765, 
0.5099334716796875, -0.11258143186569214, 0.23987837812661517, 1791572159082763332, 
-0.1210206151008606, -0.052771925926208496, 0.2686775115460949, 1791572159112762093, 
-0.12158793210983276, 0.044329166412353516, 0.26757131364405023, 1791572159142789871, 
-0.33531898260116577, 0.23406559228897095, 0.2557312590282414, 1791572159172815941, 
-0.057938992977142334, 0.22112733125686646, 0.2531142823875294, 1791572159202810581, 
-0.04248952865600586, -0.11781299114227295, 0.2360400619216973, 1791572159234200825, 
0.03599661588668823, -0.004951834678649902, 0.25111377715353134, 1791572159266380579, 
-0.261172890663147, 0.1369273066520691, 0.3332551407475213, 1791572159292845695, 
0.04665595293045044, 0.05983996391296387, 0.23668848928039263, 1791572159332743468, 
-0.04118824005126953, 0.0804833173751831, 0.21759433013958446, 1791572159362776536, 
-0.19835495948791504, 0.017858803272247314, 0.2328166489265941, 1791572159394586530, 
-0.15807610750198364, -0.017309844493865967, 0.2463030533582421, 1791572159425756856, 
0.2339460253715515, 0.09874683618545532, 0.29495375923131056, 1791572159452840969, 
-0.2886508107185364, -0.01908773183822632, 0.2562287217317697, 1791572159482777598, 
0.1952008605003357, -0.08499568700790405, 0.22217380031989792, 1791572159512737817, 
-0.15957218408584595, 0.25179749727249146, 0.2388158541961165, 1791572159542796071, 
-0.08702641725540161, 0.0516018271446228, 0.25469901808140333, 1791572159572750645, 
-0.10807132720947266, -0.19004660844802856, 0.25362193129082533, 1791572159602827220, 
0.105194091796875, 0.037969112396240234, 0.2497267134353556, 1791572159634023476, 
-0.2261483073234558, 0.10942131280899048, 0.24072083113141957, 1791572159665916326, 
-0.03508096933364868, 0.019463002681732178, 0.2864448794234764, 1791572159692854462, 
0.05019897222518921, 0.15139740705490112, 0.27923161745328046, 1791572159722788413, 
0.059637486934661865, -0.07716119289398193, 0.2562858224023705, 1791572159752740837, 
0.26255375146865845, -0.07057923078536987, 0.22585151798580033, 1791572159782876066, 
0.05195349454879761, 0.31955987215042114, 0.2115790311282244, 1791572159812836894, 
0.16703015565872192, -0.03663945198059082, 0.21340116420191374, 1791572159842968491, 
-0.04435110092163086, 0.143254816532135, 0.23786460821232408, 1791572159874027411, 
-0.32863283157348633, 0.044172048568725586, 0.257986452512357, 1791572159906238511, 
-0.176744282245636, 0.03447413444519043, 0.3130375935617748, 1791572159932724194, 
0.3711661100387573, 0.17375200986862183, 0.26860476916374815, 1791572159962716267, 
-0.3897210955619812, 0.12099456787109375, 0.25165397812557266, 1791572159992781760, 
0.6185240149497986, -0.18098270893096924, 0.2510998117393542, 1791572160022791785, 
-0.298633873462677, 0.08597081899642944, 0.259881421836663, 1791572160052736525, 
0.2901986241340637, 0.0249442458152771, 0.2575418439662597, 1791572160082782807, 
-0.18119245767593384, -0.024246811866760254, 0.22770090698792142, 1791572160113986302, 
-0.08074039220809937, 0.20337724685668945, 0.2224389223428372, 1791572160145900617, 
-0.04841071367263794, -0.008018434047698975, 0.26839249493836614, 1791572160182750355, 
0.08036231994628906, -0.08771562576293945, 0.27243237157512284, 1791572160212732442, 
-0.08720308542251587, 0.1162673830986023, 0.2832108111516665, 1791572160242753469, 
0.007946610450744629, -0.08819329738616943, 0.23803607460882778, 1791572160274622997, 
-0.18372035026550293, 0.10136699676513672, 0.23205703083844753, 1791572160305865306, 
-0.06266462802886963, 0.28538304567337036, 0.2905521071034906, 1791572160332728126, 
-0.1550133228302002, -0.07654440402984619, 0.24863111643719105, 1791572160362705869, 
0.03740036487579346, -0.16531294584274292, 0.243145499227946, 1791572160392751713, 
0.24483764171600342, 0.13339120149612427, 0.2531047651642196, 1791572160422740026, 
-0.10775738954544067, 0.15774405002593994, 0.24253476695901713, 1791572160452742047, 
-0.18629491329193115, 0.12247765064239502, 0.24325368650588106, 1791572160482746183, 
0.006570696830749512, 0.07870525121688843, 0.25137239068361755, 1791572160514036753, 
-0.2667326331138611, -0.15674495697021484, 0.2508144297985612, 1791572160546389502, 
0.00403064489364624, 0.20777583122253418, 0.28042470692357035, 1791572160582723724, 
-0.3865162134170532, 0.13188213109970093, 0.24813214569682587, 1791572160612705487, 
0.45096856355667114, 0.039367854595184326, 0.2145074089579422, 1791572160642788427, 
-0.2761327028274536, 0.1757013201713562, 0.20373973087399874, 1791572160674522264, 
-0.07666140794754028, -0.11869174242019653, 0.2092935916161974, 1791572160705852156, 
-0.06875503063201904, -0.2724008560180664, 0.28751917041656466, 1791572160732731707, 
0.10184764862060547, 0.4770472049713135, 0.2935143979398663, 1791572160762697202, 
-0.19005757570266724, 0.13242602348327637, 0.29082100830716207, 1791572160792723550, 
-0.04182785749435425, -0.09750181436538696, 0.24741856153888916, 1791572160822720918, 
-0.25116419792175293, -0.0296594500541687, 0.2637888730570749, 1791572160852692764, 
0.13123083114624023, -0.096854567527771, 0.27199733063175907, 1791572160882745551, 
-0.23900341987609863, 0.23698019981384277, 0.22824081924582612, 1791572160914051412, 
-0.05053681135177612, 0.3269132375717163, 0.20262465862773124, 1791572160946083185, 
-0.15163767337799072, -0.14137977361679077, 0.2525996866431002, 1791572160972723374, 
0.24738651514053345, -0.019405066967010498, 0.25578857334335, 1791572161002684859, 
-0.08645838499069214, 0.32289785146713257, 0.28120306890060925, 1791572161032685280, 
0.051276445388793945, -0.08532947301864624, 0.25510918378942465, 1791572161062716904, 
-0.16803008317947388, -0.02555316686630249, 0.2417753229090147, 1791572161092762609, 
0.08258718252182007, 0.23449456691741943, 0.2609777669658089, 1791572161122750282, 
-0.135323166847229, 0.009593069553375244, 0.24582790655434447, 1791572161154280542, 
0.08621060848236084, 0.0618554949760437, 0.24313943434768645, 1791572161186387905, 
-0.3605611324310303, 0.03190261125564575, 0.3004850928790392, 1791572161212968736, 
0.0695958137512207, -0.07915288209915161, 0.24474938961786435, 1791572161242743876, 
0.01463615894317627, 0.21787220239639282, 0.22816940589166115, 1791572161272695928, 
-0.07882511615753174, 0.09589648246765137, 0.2546191647103661, 1791572161302722359, 
0.23598545789718628, -0.20066052675247192, 0.2616350527837493, 1791572161332695128, 
0.06412237882614136, 0.06760650873184204, 0.25120462311068753, 1791572161362696443, 
0.04599785804748535, 0.19424599409103394, 0.22450264122457556, 1791572161394355670, 
0.18378978967666626, 0.09969949722290039, 0.22773063472313163, 1791572161425696035, 
-0.39671337604522705, 0.03544473648071289, 0.2838790930086178, 1791572161452820475, 
-0.3649991750717163, -0.2031571865081787, 0.267322966367853, 1791572161482706606, 
0.5450034141540527, 0.012948811054229736, 0.25699460441184185, 1791572161512704297, 
-0.5582113265991211, 0.4108152985572815, 0.23977006937142004, 1791572161542721469, 
0.3338879346847534, -0.11960983276367188, 0.2361731957970231, 1791572161572652818, 
-0.021187961101531982, -0.12889784574508667, 0.23984786791323923, 1791572161602680342, 
0.002538025379180908, 0.3135874271392822, 0.23975753501687921, 1791572161634397267, 
0.15089505910873413, 0.04368633031845093, 0.23591971318598118, 1791572161666234200, 
-0.10761255025863647, -0.125371515750885, 0.2608163482024025, 1791572161692810111, 
-0.11998790502548218, 0.35669416189193726, 0.23520258479865025, 1791572161722676290, 
-0.14878368377685547, 0.01755058765411377, 0.22799584359917646, 1791572161746177073, 
0.11229294538497925, -0.013351738452911377, 0.30067498014752536, 1791572161772749502, 
0.056395113468170166, 0.2113857865333557, 0.26692790856576, 1791572161802655501, 
0.07058590650558472, -0.035375118255615234, 0.24222503456515543, 1791572161832648238, 
-0.017457425594329834, -0.16013336181640625, 0.2331079266224942, 1791572161862695564, 
-0.04936540126800537, 0.3782774806022644, 0.24226091114273018, 1791572161892709422, 
-0.18264448642730713, 0.06249833106994629, 0.25264261793297005, 1791572161922715328, 
-0.04322272539138794, -0.16033339500427246, 0.2460592535601754, 1791572161954744962, 
0.019699513912200928, 0.10116738080978394, 0.26877253141213187, 1791572161986000154, 
-0.07755827903747559, 0.11448913812637329, 0.2808882007213744, 1791572162012681533, 
-0.02708268165588379, -0.12248742580413818, 0.244713829302928, 1791572162042685279, 
-0.07045048475265503, 0.19328618049621582, 0.2605735339644844, 1791572162072643676, 
-0.20447134971618652, 0.09684360027313232, 0.2603575824580524, 1791572162102666792, 
0.1761842966079712, -0.13217228651046753, 0.2556363157963926, 1791572162132657711, 
-0.3148956894874573, 0.13413786888122559, 0.25537502621949876, 1791572162162686323, 
0.4660494327545166, 0.04097104072570801, 0.2307374062196919, 1791572162194058501, 
-0.1797255277633667, 0.09147220849990845, 0.2255499473335186, 1791572162225958621, 
-0.0032611489295959473, 0.18065017461776733, 0.26755214690859797, 1791572162252690720, 
-0.40841418504714966, -0.16349077224731445, 0.24745074068868056, 1791572162282654535, 
0.14050781726837158, -0.09658896923065186, 0.2731176425819243, 1791572162312649829, 
-0.3553401231765747, 0.5596153736114502, 0.27598582207407385, 1791572162342712546, 
0.12640804052352905, -0.01485532522201538, 0.24566591800220963, 1791572162372668348, 
-0.33815300464630127, -0.16427379846572876, 0.22574258100163394, 1791572162402622166, 
0.3372238278388977, 0.1006474494934082, 0.23238181202974123, 1791572162434196819, 
-0.11824244260787964, -0.0042075514793396, 0.23496122389716734, 1791572162466220345, 
0.14143455028533936, -0.0020098090171813965, 0.26583539890400837, 1791572162492819170, 
-0.17594099044799805, 0.2111998200416565, 0.23760951383254944, 1791572162522766467, 
0.032642483711242676, -0.026270508766174316, 0.2456442495826379, 1791572162552768165, 
-0.23696672916412354, 0.11276888847351074, 0.2530250912235862, 1791572162582647224, 
-0.08239853382110596, -0.021340787410736084, 0.2634577812703313, 1791572162612600261, 
0.034531593322753906, -0.09733903408050537, 0.25935741170092225, 1791572162642679194, 
-0.012354254722595215, 0.33230018615722656, 0.23399624117985293, 1791572162674353697, 
-0.017192363739013672, -0.0012025237083435059, 0.24828977669628333, 1791572162705454597, 
0.05122077465057373, -0.11894840002059937, 0.26793513224039517, 1791572162732713490, 
-0.015790462493896484, 0.11202096939086914, 0.26567757482659804, 1791572162762658613, 
0.017427384853363037, 0.03751790523529053, 0.27415906746553337, 1791572162792651521, 
0.061647772789001465, -0.0032816529273986816, 0.23066799099131105, 1791572162822627548, 
-0.16832566261291504, 0.28996920585632324, 0.22182751701564413, 1791572162852802141, 
-0.14554017782211304, 0.0018461346626281738, 0.25388677783978564, 1791572162882657538, 
0.11632919311523438, -0.1330726146697998, 0.24077162095358584, 1791572162915016604, 
-0.07265108823776245, 0.16128283739089966, 0.2614659253092466, 1791572162946067312, 
0.3617497682571411, 0.09243828058242798, 0.2894666006670783, 1791572162972676965, 
-0.2662855386734009, -0.015848994255065918, 0.22996233231978902, 1791572163002619486, 
-0.13018441200256348, 0.2114437222480774, 0.24264414516471602, 1791572163032576091, 
-0.04274255037307739, -0.07505744695663452, 0.2522565460955285, 1791572163062608794, 
-0.34767603874206543, 0.040396928787231445, 0.25726262732773614, 1791572163092616064, 
0.6217275261878967, 0.2886759638786316, 0.2774432997845721, 1791572163122650363, 
0.6065706014633179, -0.05829894542694092, 0.26567153732229215, 1791572163153117742, 
0.5100910663604736, 0.0224381685256958, 0.23598258324403945, 1791572163185218331, 
-0.5430545210838318, 0.10444164276123047, 0.2955346289891082, 1791572163212653146, 
-0.1897066831588745, -0.04406630992889404, 0.25168776972856705, 1791572163242615201, 
-0.32399851083755493, 0.25571680068969727, 0.21660519062065323, 1791572163272569444, 
-0.6756172776222229, 0.18181824684143066, 0.22945783078267507, 1791572163302627180, 
0.7811283469200134, -0.08257389068603516, 0.22383058564904645, 1791572163332604165, 
-0.5606211423873901, 0.06890296936035156, 0.2526959315898885, 1791572163362606206, 
0.5110645890235901, 0.24699252843856812, 0.300316713262755, 1791572163393119033, 
-0.22025614976882935, 0.03656911849975586, 0.2622453405138932, 1791572163426197908, 
0.19363218545913696, -0.22341376543045044, 0.2727889549864718, 1791572163452625466, 
-0.36741745471954346, 0.23670852184295654, 0.24302402859250394, 1791572163482578832, 
0.24452465772628784, 0.22363698482513428, 0.24886937773369763, 1791572163512578554, 
-0.32288163900375366, -0.016571342945098877, 0.25201414194199157, 1791572163542658465, 
-0.00600510835647583, -0.12321770191192627, 0.24789075277151199, 1791572163572595167, 
0.11215496063232422, 0.005704283714294434, 0.2243583092770345, 1791572163602624930, 
-0.20458370447158813, 0.4189876914024353, 0.2207294960825365, 1791572163634373765, 
0.0717422366142273, 0.15705209970474243, 0.24799196983659988, 1791572163666001118, 
0.2000245451927185, -0.18836236000061035, 0.300421346254571, 1791572163692621324, 
-0.15513920783996582, -0.04297447204589844, 0.27874566189783, 1791572163722620127, 
0.4703669548034668, 0.08833318948745728, 0.26527595211663185, 1791572163752623678, 
-0.3227726221084595, 0.10321885347366333, 0.2478558421635537, 1791572163782639839, 
-0.23389780521392822, 0.22567898035049438, 0.2620846670978893, 1791572163812636399, 
0.17387831211090088, -0.09400159120559692, 0.2576516501253725, 1791572163842700145, 
-0.47753793001174927, -0.1407642364501953, 0.21993784630629998, 1791572163874529676, 
0.5777847170829773, 0.3520272970199585, 0.24167521644071377, 1791572163905374869, 
-0.2974547743797302, 0.2028983235359192, 0.27728343191910076, 1791572163932600979, 
0.14601236581802368, -0.11201244592666626, 0.2562216999668413, 1791572163962571320, 
-0.19958335161209106, 0.09305644035339355, 0.26673827838105546, 1791572163992579028, 
0.055446624755859375, -0.06670880317687988, 0.2753555722915283, 1791572164022616531, 
0.004521727561950684, 0.03576695919036865, 0.26359970741506106, 1791572164052573477, 
0.019049108028411865, 0.27762895822525024, 0.24552440292729685, 1791572164082598176, 
0.07006919384002686, 0.008063733577728271, 0.2206166258259717, 1791572164114230405, 
-0.3020809292793274, 0.1440027356147766, 0.22292138590178473, 1791572164145256813, 
-0.01548779010772705, 0.043443143367767334, 0.2673426530184913, 1791572164172634281, 
0.03960418701171875, -0.19294267892837524, 0.2532644640838946, 1791572164202586576, 
0.11762386560440063, 0.1824028491973877, 0.2513474838687081, 1791572164232555849, 
0.0259435772895813, 0.30717968940734863, 0.26585601512497287, 1791572164262597961, 
0.1989153027534485, -0.06934833526611328, 0.24419680336041868, 1791572164292533936, 
-0.253731906414032, -0.01232147216796875, 0.22410389373087425, 1791572164322587025, 
-0.07403481006622314, -0.010835647583007812, 0.23361488596694688, 1791572164354147799, 
0.08078712224960327, 0.023066043853759766, 0.25150658366897083, 1791572164385660149, 
-0.10751724243164062, 0.3070606589317322, 0.27761265138575036, 1791572164412637283, 
0.023968219757080078, -0.03911703824996948, 0.2449216090703412, 1791572164442568806, 
-0.10589402914047241, -0.05060005187988281, 0.2334613542548126, 1791572164472514746, 
0.3168233633041382, 0.1338546872138977, 0.2580775380981288, 1791572164502556517, 
0.07328623533248901, 0.14183908700942993, 0.27135474725636416, 1791572164532522092, 
-0.3015957474708557, 0.07178241014480591, 0.22798898487100627, 1791572164562595140, 
-0.1237369179725647, 0.14190077781677246, 0.20056868465221206, 1791572164594140095, 
0.3303886651992798, -0.11365687847137451, 0.23289339029287973, 1791572164625676886, 
-0.38156336545944214, -0.04964172840118408, 0.29857752027965784, 1791572164652675234, 
0.0832558274269104, 0.21493208408355713, 0.2709047057690904, 1791572164682564521, 
0.07130229473114014, 0.10574579238891602, 0.2327733413909595, 1791572164705586621, 
0.06515926122665405, -6.967782974243164e-05, 0.2786776556634478, 1791572164732578159, 
0.09148973226547241, 0.08784478902816772, 0.2347532037432926, 1791572164762554667, 
0.06274741888046265, 0.06654554605484009, 0.24930565171213853, 1791572164792554319, 
0.07619315385818481, -0.03839689493179321, 0.249422254324005, 1791572164822586430, 
-0.003793478012084961, 0.09804826974868774, 0.24673329266453636, 1791572164852568566, 
0.050599515438079834, 0.1135973334312439, 0.2522375315047463, 1791572164882651342, 
-0.15127605199813843, 0.004951000213623047, 0.251495833120424, 1791572164914372059, 
-0.11291289329528809, 0.13001763820648193, 0.26415039477874375, 1791572164945279621, 
-0.14554214477539062, -0.02799069881439209, 0.2947494763981472, 1791572164972632473, 
0.09398508071899414, -0.1306784749031067, 0.24412954318484584, 1791572165002546253, 
0.014664232730865479, 0.12828058004379272, 0.2035143159018276, 1791572165025621707, 
0.045059025287628174, 0.2619062066078186, 0.2579307918716939, 1791572165052614003, 
0.1646321415901184, -0.05271726846694946, 0.2386780165771611, 1791572165082543435, 
-0.18262165784835815, 0.018511950969696045, 0.2560978501567213, 1791572165112499828, 
-0.11537289619445801, 0.09515887498855591, 0.2577660806129939, 1791572165142599620, 
0.07466691732406616, -0.040662944316864014, 0.24748555125269903, 1791572165172585568, 
-0.17809420824050903, 0.2851773500442505, 0.25422888441824687, 1791572165202675266, 
0.037114739418029785, 0.061606526374816895, 0.2562908562553115, 1791572165234139194, 
-0.391470730304718, -0.10049313306808472, 0.2614181320948935, 1791572165264520602, 
0.5390312671661377, 0.06988561153411865, 0.2756883553812223, 1791572165292561460, 
-0.07478493452072144, -0.09547865390777588, 0.2316744044247457, 1791572165322509247, 
0.02684420347213745, 0.06203645467758179, 0.2019816323336274, 1791572165344347582, 
-0.10594111680984497, 0.40669816732406616, 0.23970413298036441, 1791572165382541216, 
0.09941864013671875, -0.08611726760864258, 0.23934603980736166, 1791572165412504680, 
-0.22441768646240234, -0.21471017599105835, 0.23957644042888812, 1791572165442558375, 
0.12869757413864136, 0.2045941948890686, 0.24482329072979725, 1791572165474621727, 
-0.13951998949050903, 0.2057565450668335, 0.24820273585190408, 1791572165505243120, 
0.0849764347076416, -0.07659947872161865, 0.2742303330316913, 1791572165532623568, 
-0.16592097282409668, 0.12683439254760742, 0.2663285195333111, 1791572165562489724, 
0.025092661380767822, -0.028979122638702393, 0.2606168014935115, 1791572165592524388, 
0.051298558712005615, -0.04451930522918701, 0.25502711145435314, 1791572165622541894, 
0.09563356637954712, 0.2896530032157898, 0.24374236236555644, 1791572165652510757, 
-0.16357022523880005, 0.06431615352630615, 0.23092578683282172, 1791572165682538267, 
-0.06099236011505127, -0.024730563163757324, 0.2274935252635952, 1791572165714381481, 
-0.05784255266189575, 0.11626464128494263, 0.24584357856184377, 1791572165745238271, 
0.06703025102615356, -0.20015406608581543, 0.2734479434396985, 1791572165782484026, 
0.03464663028717041, 0.29269927740097046, 0.24886363867223305, 1791572165812504405, 
0.041124820709228516, 0.11895865201950073, 0.26626029891018155, 1791572165842547933, 
-0.05708867311477661, -0.14707130193710327, 0.24522831554711458, 1791572165874424734, 
0.03266775608062744, 0.2903585433959961, 0.22833974926554051, 1791572165905236299, 
0.06596016883850098, -0.15216487646102905, 0.2646734730427995, 1791572165932552555, 
-0.10194766521453857, -0.10211104154586792, 0.23601753450416119, 1791572165962468701, 
-0.19357800483703613, 0.24813538789749146, 0.2162011396522624, 1791572165984960602, 
-0.14647585153579712, 0.09666001796722412, 0.2756481352794837, 1791572166022533578, 
0.08725053071975708, -0.1317170262336731, 0.2631359862097641, 1791572166052531053, 
0.2457093596458435, 0.008642256259918213, 0.291241533905668, 1791572166082539759, 
-0.32350635528564453, 0.027181386947631836, 0.25361568517836025, 1791572166114720127, 
0.043069660663604736, 0.004119873046875, 0.22777657306739163, 1791572166144968063, 
0.3583739995956421, 0.2803310751914978, 0.2572200994569056, 1791572166172495407, 
-0.33955371379852295, 0.09681576490402222, 0.2578115628248741, 1791572166202475341, 
0.1704106330871582, -0.24465477466583252, 0.2564448458960681, 1791572166232484207, 
-0.25342386960983276, -0.01794058084487915, 0.27525804703985957, 1791572166262538534, 
-0.5409784913063049, 0.18899542093276978, 0.26547129849577433, 1791572166292472450, 
0.9520260095596313, 0.1005483865737915, 0.226323037116138, 1791572166322631387, 
-0.06748849153518677, 0.2841210961341858, 0.2309167492489809, 1791572166354203699, 
-0.5763005018234253, 0.04019719362258911, 0.23476260822407713, 1791572166385037935, 
0.38770216703414917, -0.23984450101852417, 0.2609384767174062, 1791572166412472867, 
-0.32485848665237427, 0.1514948010444641, 0.26299718171405123, 1791572166442502892, 
-0.11028504371643066, 0.2040172815322876, 0.2508673415252104, 1791572166472518346, 
-0.08649224042892456, 0.062481045722961426, 0.22895764681414857, 1791572166502562541, 
0.14712947607040405, -0.1250869631767273, 0.25385818752714706, 1791572166532614722, 
0.03453803062438965, -0.1299353837966919, 0.29537642547811405, 1791572166562573362, 
0.25446414947509766, 0.2422206997871399, 0.26235039349206396, 1791572166594159378, 
0.08363759517669678, 0.15587562322616577, 0.2620238694839713, 1791572166622470992, 
-0.040991008281707764, -0.1024203896522522, 0.24597091771410373, 1791572166652529758, 
-0.1934109926223755, 0.20481783151626587, 0.2610414343731721, 1791572166682435921, 
-0.01863110065460205, -0.013366401195526123, 0.2680509006357623, 1791572166712436585, 
-0.08292800188064575, -0.15024733543395996, 0.25247393592623546, 1791572166742457601, 
0.004949748516082764, 0.27521049976348877, 0.24925295948210502, 1791572166772421614, 
-0.23242473602294922, 0.22761404514312744, 0.24833025638929618, 1791572166802485563, 
0.24695783853530884, -0.10328316688537598, 0.24372376834466117, 1791572166834343112, 
-0.16087937355041504, 0.006618201732635498, 0.2716659934764325, 1791572166864994512, 
-0.046969473361968994, -0.043501079082489014, 0.30393735142926875, 1791572166892532714, 
-0.1292250156402588, 0.019815385341644287, 0.2702434028464597, 1791572166921415002, 
0.3012060523033142, 0.30570727586746216, 0.2056505838611396, 1791572166943947562, 
-0.25966858863830566, -0.06868278980255127, 0.22502812584526027, 1791572166982412320, 
0.2834194302558899, -0.07573539018630981, 0.23151650390412146, 1791572167012396265, 
-0.2925845980644226, 0.1421436071395874, 0.2679908959105489, 1791572167041496377, 
0.3014535903930664, 0.02807915210723877, 0.23188974158420653, 1791572167073594964, 
-0.21043342351913452, -0.04136669635772705, 0.24303460608166083, 1791572167104634091, 
0.06182485818862915, 0.19873195886611938, 0.2806128677450237, 1791572167132491931, 
-0.08658480644226074, -0.01603543758392334, 0.2603905531052868, 1791572167162385262, 
-0.007171809673309326, -0.13869810104370117, 0.26449917758965547, 1791572167192406741, 
0.10387653112411499, 0.13250231742858887, 0.2546759326044315, 1791572167222390636, 
-0.1507297158241272, 0.11289221048355103, 0.22860593017971065, 1791572167252434219, 
-0.0566747784614563, 0.08976447582244873, 0.2366183844224364, 1791572167282439402, 
-0.14518892765045166, 0.12088096141815186, 0.24002554788100042, 1791572167314530914, 
0.08208072185516357, -0.055268704891204834, 0.24392508363004692, 1791572167344006306, 
0.10353153944015503, -0.03226739168167114, 0.24477541045703213, 1791572167372481767, 
0.27692365646362305, 0.26390570402145386, 0.24132994599503907, 1791572167402393537, 
0.006801307201385498, 0.19342464208602905, 0.2388579371035385, 1791572167423394982, 
0.034603118896484375, -0.04482841491699219, 0.26448980924424637, 1791572167452504779, 
0.15642011165618896, 0.18124979734420776, 0.26032497325669424, 1791572167482410608, 
0.009637415409088135, -0.0683666467666626, 0.25808381799234575, 1791572167512400570, 
0.009130418300628662, -0.06749719381332397, 0.25273212871172074, 1791572167542422274, 
-0.029541015625, 0.3343557119369507, 0.2596498964425408, 1791572167572394646, 
-0.2130526304244995, 0.037892162799835205, 0.2574562984049931, 1791572167602402111, 
0.3749244809150696, 0.01575380563735962, 0.2295104281688783, 1791572167634523081, 
-0.3971264362335205, 0.011709392070770264, 0.2539498616198551, 1791572167663631506, 
0.10266351699829102, -0.06136435270309448, 0.24972626177589335, 1791572167692526351, 
0.33537280559539795, 0.16324985027313232, 0.23849699730151205, 1791572167722395105, 
0.15040087699890137, 0.34354567527770996, 0.2191949762315713, 1791572167744965390, 
-0.335387647151947, 0.04483872652053833, 0.26732961226382407, 1791572167772496709, 
0.17540425062179565, -0.15385353565216064, 0.2395959399727821, 1791572167802469700, 
-0.1780439019203186, 0.027182161808013916, 0.2748227360931715, 1791572167832404479, 
-0.021686971187591553, 0.14364737272262573, 0.2789876957985019, 1791572167862518814, 
-0.08954489231109619, 0.22666287422180176, 0.26905914602397, 1791572167892442034, 
0.004236161708831787, 0.04151010513305664, 0.248443603342228, 1791572167922418121, 
0.02994745969772339, -0.07383662462234497, 0.22331972589573731, 1791572167954280062, 
0.21252155303955078, 0.08845633268356323, 0.2733777653842555, 1791572167982467662, 
-0.22353416681289673, 0.08250939846038818, 0.2587559770197102, 1791572168012485491, 
-0.08949118852615356, -0.08033621311187744, 0.23846425055859827, 1791572168042369327, 
-0.10882461071014404, 0.2106437087059021, 0.24124506893223718, 1791572168072375845, 
-0.02872633934020996, 0.09036248922348022, 0.2629582595792303, 1791572168102424882, 
0.22419679164886475, -0.098091721534729, 0.2649038552261663, 1791572168132377995, 
0.1474629044532776, 0.044825851917266846, 0.25349637641007006, 1791572168162856513, 
-0.17244184017181396, 0.06733441352844238, 0.23440119682971927, 1791572168194545907, 
-0.04808187484741211, 0.0514790415763855, 0.23784497271109697, 1791572168224333551, 
0.022813856601715088, 0.20277273654937744, 0.25190357795529184, 1791572168262367330, 
0.002540409564971924, 0.014109969139099121, 0.23937109568016776, 1791572168292425789, 
0.14431780576705933, -0.08931940793991089, 0.24929807656840913, 1791572168322432412, 
-0.002686917781829834, 0.31475478410720825, 0.22962482084504576, 1791572168354786403, 
0.1871233582496643, 0.04760599136352539, 0.2641357684243733, 1791572168384323119, 
-0.019813477993011475, 0.1551688313484192, 0.29101728223954226, 1791572168422358804, 
-0.0426449179649353, -0.016328275203704834, 0.2707745826126038, 1791572168452539807, 
-0.24321037530899048, -0.14240312576293945, 0.25460391865371257, 1791572168482853497, 
0.12024939060211182, 0.21285229921340942, 0.20867975281794382, 1791572168514365109, 
-0.010111689567565918, 0.12172365188598633, 0.20497706546723052, 1791572168544398159, 
0.30400389432907104, -0.041851937770843506, 0.25496772444069277, 1791572168572485434, 
-0.15051555633544922, 0.1685660481452942, 0.2564279498818083, 1791572168602361065, 
0.12474685907363892, -0.023537635803222656, 0.2467749364070861, 1791572168632331537, 
-0.3432958126068115, -0.07699555158615112, 0.24737633800852973, 1791572168662322518, 
0.0106353759765625, 0.3817989230155945, 0.25821687889622236, 1791572168692365482, 
0.02716648578643799, 0.025164484977722168, 0.2582208936228802, 1791572168722552095, 
-0.09187209606170654, -0.2503088116645813, 0.24912629371577563, 1791572168754366451, 
-0.032370030879974365, 0.1752021312713623, 0.2765846939414318, 1791572168784465745, 
0.23708653450012207, 0.11673510074615479, 0.26511582030405495, 1791572168812357290, 
-0.1210675835609436, -0.09106332063674927, 0.23458296524762173, 1791572168842328601, 
0.1172742247581482, 0.193581223487854, 0.23834689993044925, 1791572168872322472, 
-0.1321234107017517, 0.03746896982192993, 0.2340460263844389, 1791572168902358320, 
-0.040955960750579834, -0.08315008878707886, 0.25517380988949306, 1791572168932508846, 
0.11824685335159302, 0.15776455402374268, 0.26916531322164994, 1791572168962387867, 
-0.02997720241546631, 0.07579308748245239, 0.22013411155680246, 1791572168994804196, 
-0.07497161626815796, -0.01858806610107422, 0.28224991493744567, 1791572169022332298, 
0.04527980089187622, 0.26366984844207764, 0.2626738795466504, 1791572169052355784, 
-0.21816986799240112, -0.16101831197738647, 0.22942370444099836, 1791572169082311720, 
0.08001857995986938, -0.09127843379974365, 0.21529394725274245, 1791572169112345282, 
-0.3548929691314697, 0.3413201570510864, 0.22683310893488678, 1791572169142429001, 
0.4323652982711792, 0.12629520893096924, 0.24728379040019804, 1791572169172435255, 
-0.37460601329803467, 0.19000983238220215, 0.26969225978483324, 1791572169202480069, 
0.13110393285751343, -0.05476844310760498, 0.2504062566118727, 1791572169234605815, 
0.45796167850494385, -0.2295277714729309, 0.2969179372437862, 1791572169262351626, 
-0.06442558765411377, 0.29483312368392944, 0.26358432492370465, 1791572169292294749, 
-0.27974963188171387, 0.1870708465576172, 0.2464560123697164, 1791572169322332729, 
0.1516154408454895, -0.04459196329116821, 0.24048398961348005, 1791572169342354955, 
-0.20486223697662354, 0.08942091464996338, 0.2418883031898354, 1791572169382324544, 
0.006232202053070068, -0.08956557512283325, 0.26822071648990875, 1791572169412328339, 
0.15065526962280273, -0.04827249050140381, 0.2753753738288489, 1791572169442668567, 
0.0396728515625, 0.34545838832855225, 0.23727414858821688, 1791572169474570443, 
-0.06937313079833984, 0.0262567400932312, 0.26620273866612537, 1791572169502340895, 
0.1010977029800415, -0.09277606010437012, 0.24976664092890236, 1791572169532311590, 
-0.1488979458808899, 0.17706513404846191, 0.25438652097648146, 1791572169562300933, 
0.04171568155288696, -0.0645022988319397, 0.2661775980410594, 1791572169592331889, 
-0.17541033029556274, -0.030150890350341797, 0.256319027025092, 1791572169622313232, 
0.20086455345153809, 0.2599649429321289, 0.2505922126437193, 1791572169652354436, 
-0.2979785203933716, 0.03163105249404907, 0.23693739066108074, 1791572169682487310, 
0.17851436138153076, -0.26196444034576416, 0.23469313050777316, 1791572169714681546, 
-0.10670435428619385, 0.07361191511154175, 0.2865070289412644, 1791572169744890936, 
0.0662505030632019, 0.15561723709106445, 0.2969345626944048, 1791572169772330609, 
-0.0060825347900390625, 0.1272396445274353, 0.24134200137137665, 1791572169802311704, 
-0.007768452167510986, 0.26289302110671997, 0.23959330316490468, 1791572169832318003, 
-0.017494678497314453, -0.19073110818862915, 0.246218026477265, 1791572169862280956, 
0.027284979820251465, -0.19173449277877808, 0.25273798307654244, 1791572169892312942, 
0.16109710931777954, 0.28299057483673096, 0.26159333727659984, 1791572169922515890, 
0.23933178186416626, 0.1672331690788269, 0.22267707219364824, 1791572169955037173, 
-0.3794381618499756, -0.09409409761428833, 0.25279706026348037, 1791572169982369283, 
-0.06744807958602905, 0.23092448711395264, 0.2303400220320792, 1791572170012318601, 
0.2542439103126526, -0.08614528179168701, 0.2420676822582124, 1791572170042299536, 
-0.15866822004318237, -0.14364326000213623, 0.278360437338751, 1791572170072313296, 
0.08292162418365479, 0.4404855966567993, 0.2779096277255032, 1791572170102270221, 
0.09217822551727295, 0.1581861972808838, 0.23151552093726666, 1791572170132296552, 
-0.16921472549438477, -0.17865419387817383, 0.2278470417596857, 1791572170162317846, 
-0.0069890618324279785, 0.027863800525665283, 0.22663912263719077, 1791572170194426555, 
-0.09100091457366943, -0.016149580478668213, 0.2675276284001228, 1791572170222359004, 
-0.01738029718399048, 0.23775625228881836, 0.25141435878631146, 1791572170252324256, 
0.008973658084869385, 0.3160907030105591, 0.24434733091725938, 1791572170282251438, 
0.3955952525138855, -0.11531144380569458, 0.25843651483169405, 1791572170312283987, 
-0.38715291023254395, -0.05594944953918457, 0.272712194120066, 1791572170342268057, 
0.020189940929412842, 0.07355260848999023, 0.26627335197947516, 1791572170372339083, 
0.04583317041397095, -0.03760349750518799, 0.2391597396462323, 1791572170402715351, 
-0.11990201473236084, 0.16771578788757324, 0.2156625705187497, 1791572170434419079, 
-0.08724212646484375, 0.1424318552017212, 0.2524195684919179, 1791572170462415856, 
0.009388923645019531, -0.021074295043945312, 0.25564128470635805, 1791572170492368947, 
-0.09689515829086304, 0.09271979331970215, 0.2673544472106276, 1791572170522386878, 
0.011472165584564209, 0.04234945774078369, 0.242670169748698, 1791572170552339806, 
-0.025400161743164062, 0.09339100122451782, 0.23519383897753315, 1791572170582270209, 
-0.11312896013259888, 0.3811330795288086, 0.25168119598144584, 1791572170612284658, 
-0.06824511289596558, -0.12468832731246948, 0.24874616314133577, 1791572170642460280, 
-0.22782206535339355, -0.2210511565208435, 0.24167553268627048, 1791572170674662544, 
0.30920636653900146, 0.2720984220504761, 0.2938955101809153, 1791572170702279735, 
-0.08818644285202026, 0.1334800124168396, 0.2557779509150449, 1791572170732249519, 
-0.4316543936729431, -0.0418553352355957, 0.25875702387013666, 1791572170762259679, 
-0.09153538942337036, 0.27098315954208374, 0.25908034452799455, 1791572170792287085, 
0.5970867276191711, -0.09895271062850952, 0.23740694004249246, 1791572170822272010, 
-0.17817872762680054, -0.173572838306427, 0.24507340379593265, 1791572170852283770, 
0.35322487354278564, 0.29424160718917847, 0.23675415988501128, 1791572170882278535, 
-0.2383345365524292, 0.19964635372161865, 0.20332548754828433, 1791572170915169128, 
-0.07394635677337646, -0.03015267848968506, 0.26730572161644905, 1791572170942314945, 
-0.1568508744239807, 0.03383231163024902, 0.2635548112721368, 1791572170972257004, 
-0.0886760950088501, -0.06546038389205933, 0.2644227211694645, 1791572171002260378, 
-0.2201557159423828, 0.15274548530578613, 0.26246802051139695, 1791572171032265045, 
0.14074504375457764, 0.14513152837753296, 0.25184869193709136, 1791572171062240488, 
0.18533074855804443, -0.0978441834449768, 0.23869462499865784, 1791572171092261403, 
-0.1301763653755188, 0.1566789746284485, 0.23915613700348143, 1791572171122552939, 
0.04723215103149414, 0.1074022650718689, 0.22929376150954275, 1791572171154469574, 
0.11262577772140503, -0.22635483741760254, 0.2549715447804461, 1791572171182309591, 
0.05014657974243164, 0.13478130102157593, 0.24735077660605245, 1791572171212267998, 
-0.018527746200561523, 0.35207700729370117, 0.29101561389104696, 1791572171242232891, 
0.13248378038406372, -0.013210713863372803, 0.27911079014975737, 1791572171272239298, 
-0.1399863362312317, -0.048601746559143066, 0.26470068257510465, 1791572171302210870, 
-0.04880291223526001, -0.1680167317390442, 0.26127750514298054, 1791572171332230209, 
0.12217694520950317, -0.07937508821487427, 0.2326481717364948, 1791572171362962204, 
-0.23214077949523926, 0.49350494146347046, 0.22419100862392988, 1791572171394504112, 
0.10360532999038696, -0.015971779823303223, 0.26052798474206595, 1791572171422292738, 
0.014606356620788574, -0.21227174997329712, 0.23669210716800293, 1791572171452230827, 
0.39180588722229004, 0.1506364941596985, 0.2697992718408958, 1791572171482217617, 
0.06820350885391235, 0.18314963579177856, 0.2793905639743408, 1791572171512234584, 
-0.4996027946472168, -0.03914529085159302, 0.24908076447107885, 1791572171542213950, 
-0.06991928815841675, 0.26086658239364624, 0.24823826407217178, 1791572171572227463, 
0.47231727838516235, -0.08819574117660522, 0.27399640416761706, 1791572171602468808, 
-0.26249587535858154, -0.130459725856781, 0.24758347620286875, 1791572171634509812, 
0.20977699756622314, 0.1416974663734436, 0.27997427127857993, 1791572171662281985, 
-0.2598732113838196, 0.20453011989593506, 0.2426495584247806, 1791572171692263856, 
0.05167543888092041, -0.07030057907104492, 0.22268686390047526, 1791572171722203442, 
-0.0484578013420105, 0.1755850911140442, 0.24522686198124063, 1791572171752241522, 
0.038333237171173096, -0.041433751583099365, 0.2510572817777003, 1791572171782266656, 
-0.08849179744720459, -0.060527801513671875, 0.24501958123840137, 1791572171812307999, 
0.1274886131286621, 0.11488324403762817, 0.24826272297866644, 1791572171842395683, 
-0.05551350116729736, -0.11953151226043701, 0.23722506765744067, 1791572171874897379, 
-0.011797070503234863, 0.10501378774642944, 0.28384446541488734, 1791572171902267170, 
-0.18116265535354614, 0.031283438205718994, 0.26221720962615336, 1791572171932293671, 
0.17455339431762695, -0.10628318786621094, 0.2540084366342218, 1791572171962203719, 
0.07805681228637695, 0.1990361213684082, 0.23654845119580703, 1791572171992193207, 
0.033279359340667725, 0.20355463027954102, 0.2441074489110754, 1791572172022217812, 
0.2529824376106262, -0.042626023292541504, 0.2447001665744611, 1791572172052243207, 
-0.06042611598968506, 0.003807365894317627, 0.2573199147065929, 1791572172082369090, 
-0.04053419828414917, -0.011593043804168701, 0.2497417901271277, 1791572172114787203, 
0.1504184603691101, 0.037946462631225586, 0.2674948425915469, 1791572172142251725, 
-0.15786051750183105, 0.24410200119018555, 0.2310512875734697, 1791572172172229443, 
-0.11699789762496948, -0.03713172674179077, 0.25428246330943877, 1791572172202192281, 
0.03438699245452881, -0.1419805884361267, 0.2564296888452228, 1791572172232209509, 
0.09966886043548584, 0.055280864238739014, 0.252918425427224, 1791572172262207168, 
-0.06682580709457397, -0.016764521598815918, 0.24281311121548288, 1791572172292468696, 
-0.17374134063720703, 0.03422689437866211, 0.22334373863934165, 1791572172322949691, 
0.04743248224258423, 0.29266512393951416, 0.22435335296724443, 1791572172354520191, 
0.31982970237731934, -0.1532335877418518, 0.2897447808244532, 1791572172382228464, 
-0.17063140869140625, -0.15896809101104736, 0.27266512831876527, 1791572172412175250, 
0.463961124420166, 0.1729448437690735, 0.2734556848736213, 1791572172442204137, 
-0.28008705377578735, 0.1412716507911682, 0.23775879124705535, 1791572172472262391, 
0.06021106243133545, -0.10507500171661377, 0.2379060901578667, 1791572172502219852, 
-0.24818634986877441, 0.1667984127998352, 0.25510847790365204, 1791572172532208731, 
-0.18834328651428223, -0.07552850246429443, 0.23875585488624682, 1791572172562566957, 
0.19672513008117676, -0.17274165153503418, 0.23959116445140835, 1791572172594094998, 
0.08490467071533203, 0.346818745136261, 0.27629524599346417, 1791572172622259016, 
0.09199410676956177, 0.06559520959854126, 0.22696326502366804, 1791572172652309691, 
-0.053790271282196045, -0.15298038721084595, 0.24075823870079827, 1791572172682221058, 
-0.04257458448410034, 0.20206278562545776, 0.2544561421801014, 1791572172712220000, 
-0.07842034101486206, -0.06354480981826782, 0.2548264228259646, 1791572172742195902, 
0.13812494277954102, -0.08724552392959595, 0.2562767456074779, 1791572172772212563, 
0.20899730920791626, 0.38606375455856323, 0.25255400059346195, 1791572172802398888, 
0.1659795641899109, -0.007093369960784912, 0.23702867871913955, 1791572172834964901, 
-0.2513137459754944, -0.019481420516967773, 0.28024549794393383, 1791572172862274205, 
-0.1251077651977539, 0.08424496650695801, 0.26401107219018044, 1791572172892190030, 
0.056744933128356934, -0.10693871974945068, 0.2638172842295698, 1791572172922189908, 
-0.148485004901886, 0.010339021682739258, 0.24891853764908792, 1791572172952249095, 
-0.1616954803466797, 0.326987624168396, 0.2514344250852057, 1791572172982168009, 
0.05169498920440674, -0.0009552240371704102, 0.2461656874797205, 1791572173012155118, 
0.10918813943862915, -0.0756908655166626, 0.2484051108172903, 1791572173042698670, 
0.12795346975326538, 0.020313680171966553, 0.26591587030856023, 1791572173074519902, 
-0.17770057916641235, 0.0721886157989502, 0.29671924256032084, 1791572173102260228, 
-0.11636120080947876, 0.20550161600112915, 0.25743011173502994, 1791572173132247807, 
0.1967620849609375, -0.08154964447021484, 0.23075294129670984, 1791572173162402350, 
-0.21846556663513184, -0.3107486367225647, 0.22127805411150406, 1791572173192202950, 
0.2841312885284424, 0.13145601749420166, 0.2673087363408993, 1791572173222140097, 
-0.07425481081008911, 0.2948703169822693, 0.2822489183479027, 1791572173252194056, 
0.13849204778671265, -0.06437337398529053, 0.2338052762230574, 1791572173282846120, 
-0.018000006675720215, 0.10869693756103516, 0.21206368884048055, 1791572173314627174, 
-0.0767015814781189, -0.018340587615966797, 0.25719336620169725, 1791572173342252348, 
-0.14460700750350952, -0.04348224401473999, 0.25912483526046526, 1791572173382193944, 
0.0853949785232544, 0.28831154108047485, 0.28012510192912093, 1791572173412139296, 
0.04041701555252075, 0.06670260429382324, 0.25942181457234526, 1791572173442482106, 
-0.08011817932128906, 0.07722210884094238, 0.23129275106560965, 1791572173475167574, 
0.07786798477172852, 0.00439530611038208, 0.3028065377172045, 1791572173502235262, 
0.05042445659637451, -0.14318948984146118, 0.2858100237149729, 1791572173532167389, 
0.14271068572998047, 0.06286120414733887, 0.261444830851449, 1791572173562168374, 
-0.012222707271575928, 0.1346973180770874, 0.23872370849991054, 1791572173592160408, 
-0.14670342206954956, -0.004173994064331055, 0.2479318957080057, 1791572173621127427, 
-0.08734732866287231, 0.1529178023338318, 0.24922785688224552, 1791572173651139726, 
0.11432039737701416, -0.14045661687850952, 0.24092115699966687, 1791572173682990894, 
-0.012317121028900146, -0.16897374391555786, 0.22585444410153427, 1791572173714923758, 
0.13084673881530762, 0.28416621685028076, 0.25229885440365074, 1791572173742211757, 
0.10026538372039795, 0.264385461807251, 0.23042135881817458, 1791572173772164985, 
-0.21201461553573608, -0.1406458020210266, 0.24961164577070116, 1791572173802144261, 
0.5665726661682129, -0.03364747762680054, 0.2670070087208873, 1791572173832174883, 
-0.2982550263404846, 0.004647374153137207, 0.27993054394322237, 1791572173861125937, 
-0.09841549396514893, 0.042191267013549805, 0.2471294238920208, 1791572173892160692, 
0.16794174909591675, 0.23669344186782837, 0.23890424181301012, 1791572173922109777, 
-0.14521878957748413, -0.09141457080841064, 0.2149511636321702, 1791572173954640172, 
0.13537949323654175, -0.1883569359779358, 0.27491347948903977, 1791572173982201053, 
0.13111895322799683, 0.20920240879058838, 0.2589189723976147, 1791572174012141306, 
0.11664652824401855, 0.052008867263793945, 0.2281853642292195, 1791572174041098433, 
-0.10058188438415527, -0.05703479051589966, 0.20594513187594857, 1791572174072178433, 
0.07913345098495483, 0.2640780210494995, 0.2549045338006621, 1791572174101133347, 
-0.2524517774581909, 0.009617269039154053, 0.24462829247845647, 1791572174132140965, 
-0.08432376384735107, -0.13240599632263184, 0.2537032029229035, 1791572174162716659, 
0.13029783964157104, 0.2130650281906128, 0.2568355997525899, 1791572174194652139, 
-0.14423662424087524, 0.029414653778076172, 0.2831645007096975, 1791572174222159034, 
-0.03614121675491333, -0.09879040718078613, 0.26616860493937317, 1791572174252170686, 
0.10421127080917358, 0.2293684482574463, 0.28482778223602956, 1791572174281104396, 
0.0029909610748291016, -0.06149941682815552, 0.23956259239606192, 1791572174311131235, 
-0.029528439044952393, -0.16312044858932495, 0.22499556754449296, 1791572174341134894, 
-0.10468125343322754, 0.26365208625793457, 0.23131150131989128, 1791572174372159161, 
-0.23628073930740356, 0.185491144657135, 0.2520910933930286, 1791572174402528308, 
-0.050700366497039795, -0.0029358863830566406, 0.2546189784647097, 1791572174434110186, 
0.20301073789596558, -0.07462203502655029, 0.2920158944783334, 1791572174462293857, 
-0.08411282300949097, -0.21186578273773193, 0.25251105681199065, 1791572174492366261, 
-0.07305890321731567, 0.2289208173751831, 0.23272310621223236, 1791572174522311930, 
-0.0840299129486084, 0.19959336519241333, 0.252113046305475, 1791572174552152861, 
0.17399662733078003, -0.08286571502685547, 0.2652193676730298, 1791572174581118853, 
-0.13215821981430054, 0.0992574691772461, 0.2525648776245624, 1791572174611126620, 
-0.21402376890182495, -0.11907035112380981, 0.23969774364775062, 1791572174642520088, 
-0.06496405601501465, -0.11071312427520752, 0.22080241694701908, 1791572174674686696, 
0.5425822138786316, 0.43228673934936523, 0.2879548256081263, 1791572174702155274, 
-0.34898561239242554, 0.13459771871566772, 0.3030317110038191, 1791572174731143983, 
0.3589754104614258, -0.2990853190422058, 0.25618351729290423, 1791572174762142032, 
-0.24981969594955444, 0.11616343259811401, 0.25475005875037793, 1791572174792169680, 
0.14474713802337646, 0.06923127174377441, 0.26375822667897814, 1791572174822092796, 
-0.24150621891021729, -0.05053526163101196, 0.2425527792424776, 1791572174852088997, 
0.04699122905731201, 0.20374619960784912, 0.22967787629246392, 1791572174882902378, 
0.005518615245819092, -0.008136749267578125, 0.21881378788160008, 1791572174914703265, 
0.07785910367965698, -0.19142454862594604, 0.26172787244003703, 1791572174942185032, 
-0.05512082576751709, 0.17619740962982178, 0.2660114095573453, 1791572174972152051, 
-0.08180147409439087, 0.017914175987243652, 0.2656343010148464, 1791572175002079803, 
-0.05834144353866577, 0.07289159297943115, 0.2542328466756699, 1791572175032093316, 
0.08496659994125366, 0.23042958974838257, 0.26166181782496983, 1791572175062065354, 
0.014381825923919678, -0.1088862419128418, 0.26075301250679334, 1791572175092081382, 
0.22806406021118164, -0.16178232431411743, 0.26210402541654115, 1791572175122825467, 
0.24306899309158325, 0.15547996759414673, 0.2486575062623359, 1791572175154649913, 
-0.0846068263053894, 0.02821183204650879, 0.25549247723317153, 1791572175182230057, 
-0.20072531700134277, 0.013927996158599854, 0.2262288699578473, 1791572175212079743, 
0.002711772918701172, 0.16051042079925537, 0.2483801746243998, 1791572175242066674, 
-0.18627142906188965, -0.06930220127105713, 0.2562240723731482, 1791572175272086845, 
-0.06454247236251831, -0.0989118218421936, 0.26086607697486663, 1791572175302051449, 
0.10405439138412476, 0.18012624979019165, 0.27588517365212867, 1791572175331096890, 
0.15590953826904297, -0.003609180450439453, 0.2549751206384189, 1791572175362555182, 
-0.06142067909240723, 0.12706458568572998, 0.24253357588808575, 1791572175395367159, 
-0.23626762628555298, -0.10286694765090942, 0.2921103722233939, 1791572175422147943, 
-0.028803884983062744, -0.19097864627838135, 0.24264726693291955, 1791572175452089685, 
0.4334802031517029, 0.30099308490753174, 0.23810934437283884, 1791572175482054822, 
-0.4371796250343323, 0.2910327911376953, 0.23551782513514347, 1791572175512075643, 
0.4732499122619629, -0.21317732334136963, 0.2525404193575696, 1791572175541110439, 
-0.45827215909957886, -0.05946558713912964, 0.2744068176034771, 1791572175572085594, 
0.29269659519195557, 0.02475416660308838, 0.2780380616059825, 1791572175602496630, 
-0.09644144773483276, -0.0440220832824707, 0.22429570075119634, 1791572175634746877, 
-0.04911249876022339, 0.21306848526000977, 0.2513452341423718, 1791572175661094344, 
-0.08652019500732422, -0.030678987503051758, 0.23769032907461826, 1791572175692423735, 
0.0647960901260376, -0.17753386497497559, 0.2668477133868342, 1791572175722041509, 
-0.01923149824142456, 0.038120269775390625, 0.2776961462700406, 1791572175751095578, 
0.13122844696044922, 0.042838990688323975, 0.2418663373001839, 1791572175782153523, 
0.03793090581893921, -0.06301766633987427, 0.22283323053451914, 1791572175812165450, 
-0.010456502437591553, 0.16710931062698364, 0.2242709221706911, 1791572175843178032, 
-0.24011778831481934, -0.03775113821029663, 0.2327902909040037, 1791572175874727752, 
-0.050050973892211914, -0.0806075930595398, 0.2804247235161552, 1791572175902087831, 
0.13851398229599, 0.11812317371368408, 0.2667459604807098, 1791572175932037817, 
-0.05242341756820679, 0.06608879566192627, 0.2437500936083486, 1791572175962065890, 
-0.15991109609603882, 0.03503286838531494, 0.2613063338849184, 1791572175992067789, 
-0.049998462200164795, 0.1250125765800476, 0.2704631973064209, 1791572176022065694, 
-0.056721389293670654, -0.16085797548294067, 0.24746782419607438, 1791572176052088626, 
0.2115938663482666, -0.05513983964920044, 0.23519793428596802, 1791572176082532585, 
-0.1297837495803833, 0.176558256149292, 0.22869265472874212, 1791572176114839977, 
0.08687722682952881, -0.008212447166442871, 0.27768361313589024, 1791572176141132852, 
-0.2076842188835144, 0.16427987813949585, 0.2541015236233059, 1791572176172049523, 
-0.03781825304031372, -0.011999130249023438, 0.2696644105686357, 1791572176202037129, 
-0.17130827903747559, -0.23070889711380005, 0.26459632640809955, 1791572176232062020, 
0.20447301864624023, 0.10551720857620239, 0.25912326140957354, 1791572176262034958, 
-0.2742675542831421, 0.32620102167129517, 0.247332018934248, 1791572176292028231, 
0.24966561794281006, -0.06020247936248779, 0.24221312649133087, 1791572176322857298, 
-0.2735130190849304, 0.03585553169250488, 0.23533122162746076, 1791572176355212346, 
0.3565089702606201, -0.07322484254837036, 0.30052980541527374, 1791572176381099455, 
-0.14304834604263306, -0.2210109829902649, 0.24420761430805912, 1791572176412075670, 
0.005295991897583008, 0.30751365423202515, 0.24624134841611073, 1791572176442035649, 
0.12533557415008545, 0.16951745748519897, 0.2503821484384094, 1791572176472033962, 
0.008349776268005371, -0.10495412349700928, 0.2551947164197942, 1791572176501974559, 
-0.018934667110443115, -0.02875429391860962, 0.2638246102424958, 1791572176532050062, 
-0.11738765239715576, -0.1366255283355713, 0.2648658590316525, 1791572176563023750, 
-0.0696033239364624, -0.0337064266204834, 0.23305994848289974, 1791572176594788776, 
-0.05560380220413208, 0.3526671528816223, 0.26629269792373095, 1791572176622071902, 
0.01275169849395752, -0.009743928909301758, 0.25047407282627454, 1791572176652061087, 
0.1515675187110901, -0.23908007144927979, 0.24944763735269243, 1791572176682047421, 
0.2829498052597046, 0.13236260414123535, 0.27059084040647313, 1791572176712006415, 
-0.06483185291290283, 0.0062233805656433105, 0.2605922320807602, 1791572176741977955, 
-0.18797820806503296, -0.03223371505737305, 0.22719514793466944, 1791572176772023315, 
-0.03694242238998413, 0.25821608304977417, 0.21593184208839317, 1791572176803008534, 
-0.2720462679862976, -0.05266463756561279, 0.22225830556791532, 1791572176834798106, 
0.1290607452392578, -0.25969457626342773, 0.27303836697100425, 1791572176862160429, 
-0.04993081092834473, 0.17596840858459473, 0.2648596368003837, 1791572176892044560, 
0.11391961574554443, 0.04220736026763916, 0.2439329038054178, 1791572176922038765, 
-0.16466540098190308, 0.02557194232940674, 0.23115699789040955, 1791572176951991241, 
0.09182614088058472, 0.1105661392211914, 0.24117372833675182, 1791572176982034545, 
-0.30928462743759155, -0.1736849546432495, 0.24603005204893175, 1791572177012023400, 
0.20743334293365479, -0.06344527006149292, 0.2545393533300938, 1791572177042643951, 
-0.34865105152130127, 0.47672951221466064, 0.2576911660275405, 1791572177075161317, 
0.3953809142112732, -0.1633821725845337, 0.2909158744511361, 1791572177102079066, 
-0.32317328453063965, -0.18873900175094604, 0.26387174401047186, 1791572177131106235, 
0.19911909103393555, -0.07733362913131714, 0.26320340014028615, 1791572177162297704, 
0.035651445388793945, -0.058208465576171875, 0.24928528207044864, 1791572177192080164, 
0.09495788812637329, 0.2080116868019104, 0.22265418523940386, 1791572177222018786, 
-0.060864031314849854, 0.13596051931381226, 0.24088950821956723, 1791572177251112098, 
0.15478390455245972, -0.11068403720855713, 0.23802666613318366, 1791572177282631298, 
-0.13387316465377808, 0.0641288161277771, 0.23589636420409618, 1791572177315788614, 
0.052751779556274414, -0.021358191967010498, 0.29751856588273073, 1791572177342288137, 
-0.0704919695854187, -0.08819615840911865, 0.25390583242966586, 1791572177382308665, 
0.03704702854156494, 0.1496896743774414, 0.24295231249484348, 1791572177412289110, 
0.11841613054275513, 0.00615924596786499, 0.2298744186863781, 1791572177443029631, 
-0.011275887489318848, -0.1076996922492981, 0.22980631394528575, 1791572177475908370, 
-0.023891031742095947, 0.09281748533248901, 0.27923189784771096, 1791572177502280901, 
0.05032390356063843, -0.02632319927215576, 0.21206741592625208, 1791572177532407037, 
0.1868862509727478, 0.21168309450149536, 0.23907303350589895, 1791572177562295373, 
-0.18661624193191528, 0.1530657410621643, 0.2604737265795766, 1791572177592299356, 
-0.08253926038742065, -0.18228775262832642, 0.24912579107569824, 1791572177622303846, 
0.15265285968780518, -0.07226258516311646, 0.28391299876167964, 1791572177652323512, 
-0.042544782161712646, 0.2779545783996582, 0.2616400218678247, 1791572177682616766, 
0.30911386013031006, -0.06920129060745239, 0.20383711245985842, 1791572177715242035, 
-0.41447126865386963, -0.057364583015441895, 0.2617831684096427, 1791572177742291420, 
-0.05422854423522949, 0.2282024621963501, 0.23023850152374856, 1791572177772339118, 
0.2561708688735962, -0.09805911779403687, 0.21760100301059349, 1791572177802286661, 
-0.15254008769989014, -0.0519939661026001, 0.2556152125788151, 1791572177831979542, 
-0.00210648775100708, 0.25677329301834106, 0.25863521440834286, 1791572177860960794, 
0.05347037315368652, 0.04246091842651367, 0.2508200081773373, 1791572177890994756, 
0.03312206268310547, 0.04383128881454468, 0.25664623455807, 1791572177922664354, 
-0.021574079990386963, 0.00446474552154541, 0.2461666342720047, 1791572177955332545, 
0.19891411066055298, -0.14801299571990967, 0.2992770047508079, 1791572177982018991, 
-0.15981727838516235, 0.23754096031188965, 0.25298843920899255, 1791572178011946591, 
-0.12913411855697632, 0.07179415225982666, 0.23761233650410002, 1791572178041952413, 
0.13153672218322754, -0.14996862411499023, 0.22568208932243639, 1791572178071992663, 
-0.21077477931976318, 0.09998428821563721, 0.23186407876301643, 1791572178101959195, 
-0.0680837631225586, 0.01823967695236206, 0.24302869491709048, 1791572178131943170, 
0.03249084949493408, -0.1631140112876892, 0.2463631897894618, 1791572178162647186, 
0.1090506911277771, 0.2148614525794983, 0.25125361945088615, 1791572178195224347, 
-0.04129457473754883, 0.06819909811019897, 0.32573744748949446, 1791572178221989991, 
0.07710474729537964, -0.15942978858947754, 0.2591231462720106, 1791572178251983959, 
-0.07903909683227539, -0.004402518272399902, 0.2732113363313179, 1791572178281962783, 
0.08904576301574707, 0.025482475757598877, 0.27528159476852543, 1791572178311954285, 
0.11315679550170898, -0.041556358337402344, 0.24549115759242804, 1791572178341928671, 
-0.12331551313400269, 0.2922629117965698, 0.24169534997611467, 1791572178371917122, 
-0.08223187923431396, 0.0004280209541320801, 0.2392068959776024, 1791572178402110074, 
0.1250860095024109, -0.16426247358322144, 0.230067398716424, 1791572178434961984, 
-0.1424555778503418, 0.1345289945602417, 0.3172214410804271, 1791572178461004680, 
0.4435921907424927, 0.08613145351409912, 0.2599500566899788, 1791572178490987786, 
-0.2334284782409668, 0.05980652570724487, 0.23682534422217102, 1791572178521111860, 
-0.03617894649505615, 0.08268815279006958, 0.21641433834332197, 1791572178551997598, 
0.27057671546936035, -0.18267500400543213, 0.2279617209967494, 1791572178581931659, 
-0.2592995762825012, -0.09384512901306152, 0.25867430673513525, 1791572178612319283, 
0.2423800230026245, 0.15333551168441772, 0.2692301593836299, 1791572178642952745, 
-0.3278409242630005, 0.13076412677764893, 0.21725694430666984, 1791572178675908261, 
0.1299222707748413, -0.018516898155212402, 0.2629524812163233, 1791572178702351022, 
-0.2582395672798157, -0.13179689645767212, 0.26075504525591786, 1791572178732320374, 
0.24077242612838745, -0.08421707153320312, 0.27073379197976005, 1791572178762304836, 
-0.012984931468963623, 0.2369382381439209, 0.2553574824567837, 1791572178792405908, 
0.08437508344650269, 0.0790063738822937, 0.25126342057725437, 1791572178822319570, 
-0.021053433418273926, -0.1553194522857666, 0.25832310396873276, 1791572178852364958, 
-0.1400405764579773, 0.05094468593597412, 0.25689935519566803, 1791572178882703583, 
-0.184839129447937, -0.10944801568984985, 0.24242311211276374, 1791572178915426293, 
0.12160128355026245, -0.1155405044555664, 0.2821022678150395, 1791572178942318480, 
0.11558341979980469, 0.28098493814468384, 0.23886650288164846, 1791572178972354835, 
0.12813323736190796, 0.13091254234313965, 0.2365888936108041, 1791572179002340907, 
0.12496525049209595, -0.16637861728668213, 0.23864444064490237, 1791572179032318799, 
-0.18853765726089478, -0.023768961429595947, 0.261635873079307, 1791572179062353244, 
-0.07573819160461426, -0.012711107730865479, 0.26340251846397267, 1791572179092337174, 
0.07720869779586792, -0.028795480728149414, 0.2354765731401566, 1791572179122737782, 
-0.11969918012619019, 0.30046552419662476, 0.2290338238831321, 1791572179154896550, 
-0.08083301782608032, -0.1134103536605835, 0.2857218785468842, 1791572179181971476, 
-0.22502684593200684, -0.19803005456924438, 0.2633242849358593, 1791572179211890077, 
0.3941041827201843, 0.15188980102539062, 0.27987485783058674, 1791572179241874473, 
-0.12143135070800781, 0.0591120719909668, 0.26440443617379317, 1791572179271910052, 
-0.28466641902923584, -0.10501915216445923, 0.23652838409313778, 1791572179301905756, 
-0.20194047689437866, 0.24461692571640015, 0.23528622233541682, 1791572179331929659, 
0.5060508251190186, -0.08607584238052368, 0.2443400205956286, 1791572179363191505, 
-0.36487168073654175, -0.23000478744506836, 0.25626456570234474, 1791572179394982343, 
0.26871198415756226, 0.17280107736587524, 0.29630669923218633, 1791572179421929532, 
-0.30190402269363403, 0.21186381578445435, 0.2373714707497129, 1791572179451922245, 
0.03763240575790405, -0.16491776704788208, 0.24453705126061173, 1791572179481898972, 
-0.23560380935668945, 0.08997094631195068, 0.26213702018038315, 1791572179511897837, 
0.04776608943939209, -0.043431639671325684, 0.2538093915822527, 1791572179541891743, 
0.1212427020072937, -0.02789527177810669, 0.23886713762542647, 1791572179571904073, 
-0.040591537952423096, 0.15230870246887207, 0.22636461391730253, 1791572179602891291, 
0.02328091859817505, -0.010303676128387451, 0.2113522130086347, 1791572179634994045, 
-0.19678175449371338, -0.012843966484069824, 0.26774667074538405, 1791572179661848701, 
-0.08188164234161377, 0.03177887201309204, 0.24103443621148538, 1791572179691879136, 
-0.21287041902542114, -0.15013623237609863, 0.24797209956968816, 1791572179721888520, 
0.032755374908447266, 0.10423105955123901, 0.25663961743826724, 1791572179751929466, 
0.1380690336227417, 0.32844531536102295, 0.2646441848254178, 1791572179781907528, 
0.2738937735557556, -0.08309006690979004, 0.2648920546243554, 1791572179811950582, 
-0.1625117063522339, 0.04329800605773926, 0.25068292960302185, 1791572179842811886, 
-0.0567326545715332, -0.1585875153541565, 0.23957613087064222, 1791572179875312282, 
0.05507493019104004, -0.10701537132263184, 0.28151182924818696, 1791572179902383274, 
-0.3101072311401367, 0.3248245120048523, 0.24717906072967163, 1791572179932376581, 
-0.05998587608337402, 0.006575584411621094, 0.2536744643432794, 1791572179962328573, 
-0.2337530255317688, -0.13556408882141113, 0.2440104837517152, 1791572179992341018, 
0.3574562668800354, 0.005162835121154785, 0.26226342345757553, 1791572180022362924, 
-0.11244732141494751, 0.008722960948944092, 0.28307759845508, 1791572180052381418, 
-0.012034356594085693, -0.029057085514068604, 0.25344377669386314, 1791572180082750954, 
-0.46636122465133667, 0.3334709405899048, 0.21873258976076068, 1791572180115427003, 
0.3370686173439026, -0.13527065515518188, 0.2672775872492083, 1791572180142359612, 
-0.2116650938987732, -0.23644471168518066, 0.2494234956155748, 1791572180172365201, 
0.261044979095459, 0.16910821199417114, 0.2673954638712058, 1791572180202385051, 
-0.21790796518325806, 0.08731329441070557, 0.2633538500441144, 1791572180232348664, 
0.19074052572250366, -0.04091906547546387, 0.2389812758640132, 1791572180262350181, 
-0.33816689252853394, 0.08993518352508545, 0.2592874775607787, 1791572180292376907, 
0.024208903312683105, -0.03871220350265503, 0.2607355819870913, 1791572180323080958, 
0.17873740196228027, -0.08025127649307251, 0.2325141114405479, 1791572180354956753, 
0.15081745386123657, 0.17474967241287231, 0.2673087618621928, 1791572180382376590, 
0.07911980152130127, 0.059507012367248535, 0.23618703627338003, 1791572180412417317, 
-0.014335155487060547, -0.06426733732223511, 0.2419560607442715, 1791572180442385678, 
-0.3315708041191101, -0.02875453233718872, 0.26072166926118273, 1791572180471824056, 
0.10394710302352905, -0.032989680767059326, 0.2535623569431914, 1791572180501839544, 
-0.17072910070419312, 0.09473717212677002, 0.2528205355549589, 1791572180531938268, 
0.1576501727104187, 0.1442599892616272, 0.24289566409007252, 1791572180563218267, 
0.0982288122177124, -0.02915734052658081, 0.2364114943534747, 1791572180594953217, 
0.07463955879211426, 0.1440509557723999, 0.28041461167834486, 1791572180631801167, 
0.1255413293838501, -0.025659680366516113, 0.25329422178645367, 1791572180661819827, 
-0.030070900917053223, -0.09689325094223022, 0.22321527231223365, 1791572180691825465, 
-0.01091092824935913, 0.19298285245895386, 0.21952403189357894, 1791572180723069075, 
-0.11851054430007935, 0.09050995111465454, 0.22708095503154918, 1791572180755530583, 
-0.12950444221496582, -0.12179863452911377, 0.2930663295870197, 1791572180781856682, 
0.4453096389770508, 0.008003413677215576, 0.2748359083333581, 1791572180811886247, 
-0.2485102415084839, -0.04016721248626709, 0.2555621549874027, 1791572180841838855, 
-0.07374852895736694, -0.04947245121002197, 0.22774496793459317, 1791572180871809494, 
-0.040294110774993896, 0.31505846977233887, 0.23156410144505285, 1791572180901824068, 
0.13466912508010864, -0.008705317974090576, 0.24593278478788716, 1791572180932373689, 
-0.3755221962928772, -0.2772141695022583, 0.2502697766542125, 1791572180962815446, 
0.05665069818496704, 0.19661575555801392, 0.24148624965432683, 1791572180995141509, 
-0.18482482433319092, 0.13395965099334717, 0.2733351661470368, 1791572181022423397, 
0.038295209407806396, 0.07845723628997803, 0.255321761084678, 1791572181052351166, 
0.04042470455169678, 0.08196425437927246, 0.2693507309598826, 1791572181082442523, 
-0.22784656286239624, -0.17894810438156128, 0.2566740627797408, 1791572181112413246, 
-0.1918199062347412, -0.02048403024673462, 0.2738448831598455, 1791572181142461093, 
0.08360558748245239, 0.20936495065689087, 0.2546396599897294, 1791572181172533034, 
-0.03892350196838379, -0.10946118831634521, 0.22678687206842787, 1791572181202847620, 
-0.05592691898345947, 0.11962294578552246, 0.21889772069017494, 1791572181234884144, 
-0.036953091621398926, 0.027077674865722656, 0.2542451034368625, 1791572181262384371, 
0.02683502435684204, -0.12478530406951904, 0.2346761441575607, 1791572181292359400, 
0.1281481385231018, 0.17188096046447754, 0.2542083668645899, 1791572181322371493, 
0.2676776647567749, 0.0405118465423584, 0.2568784827246874, 1791572181351930881, 
-0.047502994537353516, -0.15440738201141357, 0.2535404201599693, 1791572181381810469, 
-0.20110595226287842, 0.1830148696899414, 0.260087450580183, 1791572181411805815, 
-0.0864148736000061, -0.11708676815032959, 0.25238375742991975, 1791572181443506976, 
-0.0596044659614563, -0.16570544242858887, 0.24754866201939885, 1791572181475056264, 
0.0500909686088562, 0.24877172708511353, 0.2769973439530175, 1791572181501773191, 
-0.10754245519638062, 0.025995075702667236, 0.23623918744836384, 1791572181531774658, 
0.2801934480667114, -0.12515497207641602, 0.22476185381998784, 1791572181561794665, 
-0.15286403894424438, 0.1301148533821106, 0.24657855065993473, 1791572181591792136, 
-0.18718427419662476, -0.10199481248855591, 0.25828320486120293, 1791572181621865367, 
-0.04151725769042969, -0.04941052198410034, 0.24113894431494917, 1791572181651764218, 
0.43625086545944214, 0.44074589014053345, 0.25013623780520655, 1791572181682998214, 
-0.142846941947937, 0.12210351228713989, 0.24069480312285144, 1791572181715566161, 
-0.11061424016952515, -0.32483774423599243, 0.2691438042023282, 1791572181741772704, 
-0.2241150140762329, -0.003382384777069092, 0.25362322112481356, 1791572181771782175, 
-0.42343848943710327, -0.05336529016494751, 0.23955591114249872, 1791572181795020761, 
-0.07143509387969971, 0.04722034931182861, 0.2797749152944719, 1791572181831806168, 
-0.01110297441482544, 0.13834542036056519, 0.24063115659345236, 1791572181861790216, 
0.03270995616912842, -0.13308930397033691, 0.24859920125282245, 1791572181891878895, 
0.035385310649871826, -0.21858280897140503, 0.26164137140629135, 1791572181922837598, 
0.24420768022537231, 0.21836233139038086, 0.24832507529757128, 1791572181955384609, 
-0.22688162326812744, -0.014967262744903564, 0.2656575172203612, 1791572181981798566, 
-0.12730681896209717, -0.035965025424957275, 0.23289886306025906, 1791572182011774663, 
-0.12558090686798096, 0.1659090518951416, 0.252677272588, 1791572182041798388, 
-0.12392467260360718, -0.10030829906463623, 0.26573605475892415, 1791572182071774996, 
0.2004241943359375, -0.0525357723236084, 0.2743813691115155, 1791572182101745722, 
0.10479229688644409, 0.21563327312469482, 0.26389112241340207, 1791572182131735106, 
-0.05339407920837402, -0.022280633449554443, 0.22677240444902175, 1791572182162847400, 
-0.14221274852752686, 0.022233426570892334, 0.21198200636610814, 1791572182195058794, 
-0.0241624116897583, -0.03965592384338379, 0.2795952223517895, 1791572182221853857, 
-0.08637797832489014, -0.03455638885498047, 0.2603618730109099, 1791572182251790270, 
0.0858338475227356, 0.14572608470916748, 0.25472884438815874, 1791572182281764224, 
-0.0032522082328796387, 0.1323680281639099, 0.2539922414302011, 1791572182311747664, 
0.20630788803100586, -0.1016724705696106, 0.26266590506817483, 1791572182341740530, 
-0.1285456418991089, 0.03409016132354736, 0.26572699596396543, 1791572182371762303, 
-0.39487767219543457, -0.15031510591506958, 0.2506250903656218, 1791572182403312353, 
0.004507660865783691, -0.07420849800109863, 0.2306241819733845, 1791572182435044666, 
0.4567340612411499, 0.31514477729797363, 0.2615164522030863, 1791572182461881308, 
-0.264930784702301, 0.21010708808898926, 0.23341391592848806, 1791572182492431354, 
0.24723321199417114, -0.2261732816696167, 0.2464838787003647, 1791572182522611351, 
-0.22991186380386353, 0.04435008764266968, 0.2734107254378797, 1791572182552627303, 
0.12164205312728882, 0.06681668758392334, 0.262854168676302, 1791572182582433447, 
-0.3023400902748108, -0.014707863330841064, 0.23302890088713382, 1791572182612416712, 
-0.04840254783630371, 0.11587029695510864, 0.2258987834173713, 1791572182642870009, 
0.048971593379974365, -0.018036842346191406, 0.21755115064695046, 1791572182675278870, 
-0.1510365605354309, -0.1055179238319397, 0.27670696073889545, 1791572182702446517, 
0.06134408712387085, 0.24092060327529907, 0.2612074224153332, 1791572182732374616, 
0.16438287496566772, -0.01341545581817627, 0.24251589152837305, 1791572182761735167, 
-0.052860140800476074, -0.013676941394805908, 0.22807699371473322, 1791572182792414651, 
0.041231393814086914, 0.13321441411972046, 0.24092103937121148, 1791572182822523476, 
-0.04614531993865967, -0.12154334783554077, 0.2336438888289471, 1791572182852422744, 
-0.20577561855316162, -0.05628424882888794, 0.2536005109802069, 1791572182882928282, 
0.035163044929504395, 0.3417488932609558, 0.2695393294651485, 1791572182914733262, 
-0.06299424171447754, -0.02459472417831421, 0.3046000988377337, 1791572182942413811, 
-0.08117043972015381, -0.06829476356506348, 0.28565107766322506, 1791572182971711798, 
0.06271475553512573, 0.06842631101608276, 0.23658908006604845, 1791572182994134044, 
-0.16545289754867554, -0.022896409034729004, 0.2529895565241407, 1791572183022435107, 
0.15077584981918335, -0.0626685619354248, 0.25074199086315047, 1791572183052439364, 
-0.18862736225128174, 0.337158203125, 0.24388865382237626, 1791572183081784315, 
0.25784194469451904, -0.10386532545089722, 0.22307428322321515, 1791572183111792370, 
-0.23112410306930542, -0.0165901780128479, 0.25092620285731093, 1791572183141799935, 
-0.2914162874221802, 0.11333340406417847, 0.25929750852675415, 1791572183171710024, 
-0.12241333723068237, -0.11136025190353394, 0.23574807387619057, 1791572183202916461, 
0.45746344327926636, 0.14927148818969727, 0.2320002686447733, 1791572183234945938, 
-0.26579922437667847, 0.412014365196228, 0.2915175450628042, 1791572183261751143, 
0.22781455516815186, -0.24920445680618286, 0.243335241809483, 1791572183291703574, 
-0.22635841369628906, -0.048523902893066406, 0.2364605641358639, 1791572183321726749, 
0.00703740119934082, 0.065060555934906, 0.23838229432393004, 1791572183351714262, 
-0.11013591289520264, -0.03137791156768799, 0.2533010422627987, 1791572183381750832, 
-0.09025102853775024, 0.09544169902801514, 0.255359650948225, 1791572183411728411, 
-0.10493385791778564, 0.1767142415046692, 0.24536411703415192, 1791572183442997892, 
-0.059264540672302246, -0.08265906572341919, 0.2403138417331814, 1791572183475148361, 
0.09015220403671265, -0.06625086069107056, 0.2936009052202003, 1791572183501738257, 
-0.12053573131561279, 0.05703526735305786, 0.26076476357798667, 1791572183531709160, 
0.026329398155212402, -0.0017786026000976562, 0.2296609067343007, 1791572183561761056, 
-0.06921905279159546, 0.15654003620147705, 0.22343425111748028, 1791572183591734742, 
0.012685775756835938, 0.05876392126083374, 0.24888438785122727, 1791572183621116961, 
0.051802217960357666, -0.12769794464111328, 0.23786231926062024, 1791572183651819132, 
0.03263670206069946, 0.05983465909957886, 0.25869518347545123, 1791572183683218485, 
-0.16342675685882568, 0.13676846027374268, 0.27355262788190504, 1791572183714332320, 
-0.0457114577293396, -0.10510236024856567, 0.27536057325981267, 1791572183741788967, 
0.048217177391052246, 0.1634189486503601, 0.2399198528081091, 1791572183771766744, 
-0.09880572557449341, 0.054457128047943115, 0.24697519374458732, 1791572183801806375, 
0.10475796461105347, -0.17944645881652832, 0.24033842880141645, 1791572183831794009, 
-0.24854356050491333, 0.19862359762191772, 0.237198837049607, 1791572183862519524, 
0.3205525279045105, 0.03537952899932861, 0.24184908639485211, 1791572183892571068, 
-0.11633169651031494, 0.03584045171737671, 0.2417471382324163, 1791572183923410330, 
-0.0005288124084472656, 0.00489354133605957, 0.2574370418810343, 1791572183954242121, 
-0.38097912073135376, -0.11905038356781006, 0.28934098409324954, 1791572183981673192, 
0.522442102432251, 0.04690349102020264, 0.2669536322531968, 1791572184011690983, 
-0.4161033034324646, 0.27949708700180054, 0.2588257656279443, 1791572184041695605, 
0.2920546531677246, -0.22607719898223877, 0.25190702760619926, 1791572184071756297, 
-0.19418901205062866, -0.051569998264312744, 0.24087074603799005, 1791572184101717194, 
0.03635096549987793, 0.12181955575942993, 0.2510402647265274, 1791572184131769236, 
-0.11957782506942749, 0.043085455894470215, 0.23801633754769658, 1791572184162990723, 
-0.18717896938323975, 0.10441833734512329, 0.22126430417833862, 1791572184194654117, 
0.27859610319137573, 0.13916081190109253, 0.2757374872032593, 1791572184221899173, 
0.05162513256072998, 0.010096192359924316, 0.2661315673515199, 1791572184251794987, 
0.11083823442459106, -0.06813132762908936, 0.26551759914598194, 1791572184281681929, 
-0.07673835754394531, -0.026637792587280273, 0.26651747954333965, 1791572184311729925, 
-0.046974122524261475, 0.09421515464782715, 0.24035348401461448, 1791572184341691312, 
-0.18345803022384644, 0.19606339931488037, 0.2278998295189172, 1791572184371761973, 
-0.02071559429168701, -0.05094742774963379, 0.22617284304940363, 1791572184403834393, 
0.0309603214263916, -0.07121449708938599, 0.23407235840384724, 1791572184434647101, 
0.10235285758972168, 0.07771950960159302, 0.2739700511089671, 1791572184461676270, 
-0.10046327114105225, 0.054634809494018555, 0.24301285792291955, 1791572184491680493, 
-0.01627880334854126, -0.09845232963562012, 0.23158157350952022, 1791572184521717501, 
-0.010832488536834717, 0.12318187952041626, 0.25392612491620214, 1791572184551727257, 
-0.23595118522644043, 0.13945960998535156, 0.2593383220363212, 1791572184581698321, 
0.149583101272583, -0.17193669080734253, 0.25650077167508417, 1791572184611672532, 
-0.09172391891479492, 0.017186999320983887, 0.2558451780154399, 1791572184643013931, 
0.26825642585754395, 0.091438889503479, 0.22947959823052935, 1791572184674707373, 
-0.15809369087219238, -0.000406801700592041, 0.2706176377369837, 1791572184701676211, 
-0.18692684173583984, 0.10542136430740356, 0.26125431333878474, 1791572184731690743, 
-0.517693042755127, -0.10163551568984985, 0.2594628466625147, 1791572184761683511, 
0.5426528453826904, -0.10652589797973633, 0.2829969252211351, 1791572184791681250, 
-0.42505723237991333, 0.47822630405426025, 0.2756418216990142, 1791572184821755229, 
0.45866405963897705, -0.04890584945678711, 0.23688633873776158, 1791572184851674379, 
-0.23894208669662476, -0.24795448780059814, 0.23297968074528688, 1791572184882962779, 
0.17274969816207886, 0.20945614576339722, 0.2443422618707139, 1791572184913425994, 
-0.3451768159866333, 0.020264029502868652, 0.25946765844719816, 1791572184941709032, 
-0.21759504079818726, -0.13337910175323486, 0.2399710253803371, 1791572184971673223, 
-0.15137916803359985, 0.31923121213912964, 0.2217647077818619, 1791572184994725000, 
-0.0742836594581604, -0.004076659679412842, 0.29110283156439454, 1791572185031692599, 
-0.007792115211486816, -0.09307783842086792, 0.256028577963789, 1791572185061774036, 
0.16634219884872437, 0.06267803907394409, 0.25615844123322035, 1791572185091715061, 
0.013884246349334717, -0.030144989490509033, 0.2454342622610646, 1791572185122122843, 
-0.18112421035766602, 0.07879382371902466, 0.22139786044794085, 1791572185154359756, 
-0.22144973278045654, 0.16642075777053833, 0.27692576035859306, 1791572185182605151, 
-0.2006322145462036, -0.06800675392150879, 0.26732560395943455, 1791572185211685310, 
-0.063906729221344, -0.03973871469497681, 0.26129851864025333, 1791572185241643486, 
0.0331571102142334, 0.029637515544891357, 0.274581658236776, 1791572185271637590, 
0.16621428728103638, 0.05068480968475342, 0.24727330638684866, 1791572185301773685, 
-0.17209464311599731, 0.20473366975784302, 0.2254190238925719, 1791572185331702251, 
-0.15963101387023926, -0.040624380111694336, 0.21666852186379076, 1791572185363623521, 
-0.0038166046142578125, -0.1418970823287964, 0.2222936774780081, 1791572185394312497, 
-0.19632118940353394, -0.05291777849197388, 0.2732804339106208, 1791572185421630471, 
0.3367971181869507, 0.2311609387397766, 0.2573328748059461, 1791572185451690085, 
-0.004226386547088623, 0.11965394020080566, 0.2450077693015734, 1791572185481643552, 
-0.019561707973480225, 0.060423314571380615, 0.24506342065749953, 1791572185511638407, 
-0.6465908288955688, -0.20779454708099365, 0.25628413142628775, 1791572185541673670, 
0.4711892008781433, -0.15847241878509521, 0.2762589012352737, 1791572185571630306, 
-0.2917821407318115, 0.3445371389389038, 0.25991996989983457, 1791572185603049447, 
0.17647606134414673, 0.09737265110015869, 0.24141536052278714, 1791572185634269147, 
-0.21920257806777954, -0.10662621259689331, 0.24889514371649027, 1791572185661629302, 
0.143460214138031, 0.08334046602249146, 0.24328531013635987, 1791572185691607354, 
-0.23132997751235962, -0.11248999834060669, 0.2747846570379321, 1791572185721648258, 
0.11523222923278809, -0.10579371452331543, 0.2548103952554497, 1791572185751654355, 
0.04719984531402588, 0.3457779288291931, 0.24513121878604585, 1791572185781724787, 
0.04668527841567993, 0.15948814153671265, 0.25629287873203804, 1791572185812289194, 
-0.01789224147796631, -0.09799879789352417, 0.2651976073248545, 1791572185843059927, 
-0.138752281665802, -0.023946404457092285, 0.2626882367924499, 1791572185874603817, 
0.032794058322906494, -0.0527307391166687, 0.289713719704334, 1791572185901620109, 
-0.051220715045928955, 0.12703877687454224, 0.22694582935125407, 1791572185931630018, 
-0.20660972595214844, 0.3087044358253479, 0.22508393087290776, 1791572185961645336, 
-0.018992722034454346, -0.07136678695678711, 0.23613509742404357, 1791572185991803967, 
-0.2055233120918274, -0.14681899547576904, 0.24330759914040131, 1791572186021625439, 
-0.0753246545791626, 0.16383063793182373, 0.26609665280044364, 1791572186051681133, 
0.05449330806732178, 0.10484528541564941, 0.2522454431275101, 1791572186083081179, 
-0.1045113205909729, 0.07836610078811646, 0.23329376059168574, 1791572186114042852, 
-0.18572568893432617, 0.20380955934524536, 0.28612396117527544, 1791572186141638770, 
0.10847151279449463, -0.04294228553771973, 0.2655198433450982, 1791572186171664060, 
-0.2693801522254944, -0.14250832796096802, 0.26006431806235564, 1791572186201630365, 
0.4166179299354553, 0.1635204553604126, 0.24156365908985164, 1791572186231570072, 
-0.17243266105651855, 0.08102357387542725, 0.22218002244782312, 1791572186261762073, 
-0.1724451184272766, 0.05582427978515625, 0.22754421961640162, 1791572186291665286, 
-0.5358484983444214, 0.19750118255615234, 0.2306189649094203, 1791572186323529398, 
0.6008076071739197, -0.18252819776535034, 0.2651140670092144, 1791572186354378740, 
-0.49096745252609253, 0.01889026165008545, 0.3026764785429192, 1791572186381660815, 
0.3389242887496948, 0.08740115165710449, 0.23713695785985056, 1791572186411638682, 
-0.24954938888549805, 0.0032442808151245117, 0.22386592980080422, 1791572186441729075, 
0.09076261520385742, 0.08598065376281738, 0.25289027404759906, 1791572186471797896, 
-0.20872586965560913, 0.02266991138458252, 0.2737165846153632, 1791572186501658062, 
0.04564899206161499, -0.24589520692825317, 0.24517021041110548, 1791572186531942675, 
-0.09850490093231201, 0.25650352239608765, 0.24011534023620082, 1791572186562113989, 
0.0639905333518982, 0.2031802535057068, 0.24479445282582807, 1791572186591663810, 
-0.22227823734283447, -0.1540411114692688, 0.25401543720129127, 1791572186621808402, 
-0.02031189203262329, 0.1258428692817688, 0.27959134702377497, 1791572186651580625, 
0.02997833490371704, 0.01860368251800537, 0.27089418537655574, 1791572186681616629, 
-0.014264523983001709, -0.08210033178329468, 0.23713844466584444, 1791572186711551504, 
-0.19665509462356567, 0.29594361782073975, 0.22532044242866578, 1791572186741581295, 
-0.1436660885810852, -0.04745042324066162, 0.24933320956506197, 1791572186771601789, 
-0.05999958515167236, 0.008020341396331787, 0.24464709735983536, 1791572186802093393, 
0.08849263191223145, 0.1872730851173401, 0.23920863953456847, 1791572186833803246, 
0.2455681562423706, -0.1071200966835022, 0.2655459098043955, 1791572186861754147, 
-0.19076615571975708, 0.026966452598571777, 0.24855859151483628, 1791572186891545199, 
0.0692054033279419, 0.268619179725647, 0.269493750979779, 1791572186921564972, 
-0.11925870180130005, 0.04927951097488403, 0.25735673510667434, 1791572186951601456, 
-0.13976728916168213, -0.10956168174743652, 0.24011411403566185, 1791572186981592345, 
0.26983630657196045, 0.020112693309783936, 0.2582170005774821, 1791572187011581576, 
-0.3127158284187317, 0.06840270757675171, 0.24309821863297945, 1791572187043422870, 
-0.11708015203475952, 0.2118241786956787, 0.2479872520508266, 1791572187074355966, 
-0.3190847635269165, 0.204021155834198, 0.2901208055226707, 1791572187101574531, 
0.43185287714004517, -0.12812185287475586, 0.24499408978354417, 1791572187131506767, 
-0.18567132949829102, -0.17595738172531128, 0.23776053767540004, 1791572187161578412, 
0.1320376992225647, 0.2598896026611328, 0.2416943975695074, 1791572187191696433, 
-0.37659233808517456, 0.19487732648849487, 0.2420660695691653, 1791572187221575433, 
0.06553483009338379, 0.06706410646438599, 0.22877766355621673, 1791572187251589708, 
-0.21183055639266968, -0.08785563707351685, 0.24247402678161073, 1791572187283533344, 
0.049623966217041016, -0.06351238489151001, 0.2581058299361704, 1791572187313135633, 
-0.09607267379760742, 0.17505675554275513, 0.25103188689669825, 1791572187341549751, 
0.0014492273330688477, 0.20537257194519043, 0.2495975068114709, 1791572187371684145, 
